STUDYID,USUBJID,SUBJID,SITEID,AGE,AGEU,SEX,RACE,ETHNIC,ARMCD,ARM,ACTARMCD,ACTARM,COUNTRY,RFSTDTC,RFENDTC,RFXSTDTC,RFXENDTC,RFICDTC,RFPENDTC,DTHDTC,DTHFL,TRT01P,TRT01A,TRTSDT,TRTEDT,TRTDURD,SAFFL
STUDY001,STUDY001-SUBJ0001,SUBJ0001,22,41,YEARS,M,OTHER,HISPANIC OR LATINO,ARM3,Treatment 3,ARM3,Treatment 3,MW,2025-09-16,2026-08-23,2025-10-27,2026-09-03,2026-07-03,2026-08-23,NA,NA,Treatment 3,Treatment 3,2025-10-27,2026-09-03,312,Y
STUDY001,STUDY001-SUBJ0002,SUBJ0002,16,57,YEARS,F,OTHER,NOT HISPANIC OR LATINO,ARM3,Treatment 3,ARM3,Treatment 3,KW,2026-03-29,2026-08-18,2025-11-21,2026-08-21,2026-07-23,2026-08-18,NA,NA,Treatment 3,Treatment 3,2025-11-21,2026-08-21,274,Y
STUDY001,STUDY001-SUBJ0003,SUBJ0003,45,30,YEARS,F,ASIAN,HISPANIC OR LATINO,ARM1,Treatment 1,ARM1,Treatment 1,GM,2026-01-25,2026-09-06,2025-11-26,2026-08-30,2026-05-23,2026-09-06,NA,NA,Treatment 1,Treatment 1,2025-11-26,2026-08-30,278,Y
STUDY001,STUDY001-SUBJ0004,SUBJ0004,48,51,YEARS,M,BLACK OR AFRICAN AMERICAN,HISPANIC OR LATINO,ARM3,Treatment 3,ARM3,Treatment 3,AM,2026-02-06,2026-08-14,2025-10-14,2026-08-31,2026-04-19,2026-08-14,NA,NA,Treatment 3,Treatment 3,2025-10-14,2026-08-31,322,Y
STUDY001,STUDY001-SUBJ0005,SUBJ0005,34,32,YEARS,M,ASIAN,NOT HISPANIC OR LATINO,ARM3,Treatment 3,ARM3,Treatment 3,EE,2026-03-06,2026-08-14,2026-03-30,2026-08-31,2026-03-15,2026-08-14,NA,NA,Treatment 3,Treatment 3,2026-03-30,2026-08-31,155,Y
STUDY001,STUDY001-SUBJ0006,SUBJ0006,40,66,YEARS,M,ASIAN,HISPANIC OR LATINO,ARM2,Treatment 2,ARM2,Treatment 2,MY,2026-01-01,2026-09-03,2026-05-19,2026-08-14,2026-01-20,2026-09-03,NA,NA,Treatment 2,Treatment 2,2026-05-19,2026-08-14,88,Y
STUDY001,STUDY001-SUBJ0007,SUBJ0007,9,40,YEARS,F,OTHER,NOT HISPANIC OR LATINO,ARM3,Treatment 3,ARM3,Treatment 3,OM,2025-10-09,2026-09-10,2025-09-14,2026-09-02,2026-01-03,2026-09-10,NA,NA,Treatment 3,Treatment 3,2025-09-14,2026-09-02,354,Y
STUDY001,STUDY001-SUBJ0008,SUBJ0008,17,34,YEARS,M,OTHER,NOT HISPANIC OR LATINO,ARM2,Treatment 2,ARM2,Treatment 2,MX,2025-10-22,2026-08-24,2025-12-29,2026-09-03,2026-02-20,2026-08-24,NA,NA,Treatment 2,Treatment 2,2025-12-29,2026-09-03,249,Y
STUDY001,STUDY001-SUBJ0009,SUBJ0009,40,28,YEARS,F,OTHER,NOT HISPANIC OR LATINO,ARM1,Treatment 1,ARM1,Treatment 1,BF,2026-07-05,2026-09-10,2026-07-28,2026-09-10,2026-03-29,2026-09-10,NA,NA,Treatment 1,Treatment 1,2026-07-28,2026-09-10,45,Y
STUDY001,STUDY001-SUBJ0010,SUBJ0010,28,22,YEARS,F,OTHER,NOT HISPANIC OR LATINO,ARM1,Treatment 1,ARM1,Treatment 1,CF,2026-07-09,2026-09-08,2026-04-26,2026-08-15,2026-02-17,2026-09-08,NA,NA,Treatment 1,Treatment 1,2026-04-26,2026-08-15,112,Y
STUDY001,STUDY001-SUBJ0011,SUBJ0011,6,57,YEARS,F,ASIAN,NOT HISPANIC OR LATINO,ARM3,Treatment 3,ARM3,Treatment 3,AR,2025-11-07,2026-08-22,2025-12-21,2026-08-22,2025-11-11,2026-08-22,NA,NA,Treatment 3,Treatment 3,2025-12-21,2026-08-22,245,Y
STUDY001,STUDY001-SUBJ0012,SUBJ0012,37,30,YEARS,M,WHITE,NOT HISPANIC OR LATINO,ARM2,Treatment 2,ARM2,Treatment 2,GY,2025-09-14,2026-09-08,2026-02-21,2026-08-17,2026-05-18,2026-09-08,NA,NA,Treatment 2,Treatment 2,2026-02-21,2026-08-17,178,Y
STUDY001,STUDY001-SUBJ0013,SUBJ0013,38,66,YEARS,M,AMERICAN INDIAN OR ALASKA NATIVE,NOT HISPANIC OR LATINO,ARM3,Treatment 3,ARM3,Treatment 3,GB,2025-11-26,2026-09-07,2025-12-11,2026-09-05,2026-03-24,2026-09-07,NA,NA,Treatment 3,Treatment 3,2025-12-11,2026-09-05,269,Y
STUDY001,STUDY001-SUBJ0014,SUBJ0014,16,20,YEARS,F,OTHER,HISPANIC OR LATINO,ARM2,Treatment 2,ARM2,Treatment 2,GH,2026-06-04,2026-08-26,2026-06-23,2026-09-09,2025-12-12,2026-08-26,NA,NA,Treatment 2,Treatment 2,2026-06-23,2026-09-09,79,Y
STUDY001,STUDY001-SUBJ0015,SUBJ0015,24,77,YEARS,M,ASIAN,NOT HISPANIC OR LATINO,ARM2,Treatment 2,ARM2,Treatment 2,HR,2026-04-25,2026-08-26,2026-01-23,2026-08-18,2026-02-22,2026-08-26,NA,NA,Treatment 2,Treatment 2,2026-01-23,2026-08-18,208,Y
STUDY001,STUDY001-SUBJ0016,SUBJ0016,44,31,YEARS,F,OTHER,HISPANIC OR LATINO,ARM2,Treatment 2,ARM2,Treatment 2,NZ,2026-07-26,2026-09-09,2025-09-18,2026-08-23,2025-12-30,2026-09-09,NA,NA,Treatment 2,Treatment 2,2025-09-18,2026-08-23,340,Y
STUDY001,STUDY001-SUBJ0017,SUBJ0017,16,63,YEARS,F,WHITE,NOT HISPANIC OR LATINO,ARM1,Treatment 1,ARM1,Treatment 1,AR,2025-09-17,2026-08-26,2026-02-11,2026-08-16,2026-08-10,2026-08-26,NA,NA,Treatment 1,Treatment 1,2026-02-11,2026-08-16,187,Y
STUDY001,STUDY001-SUBJ0018,SUBJ0018,19,21,YEARS,M,ASIAN,NOT HISPANIC OR LATINO,ARM2,Treatment 2,ARM2,Treatment 2,CD,2025-09-18,2026-09-06,2026-05-31,2026-08-14,2026-02-08,2026-09-06,NA,NA,Treatment 2,Treatment 2,2026-05-31,2026-08-14,76,Y
STUDY001,STUDY001-SUBJ0019,SUBJ0019,5,38,YEARS,M,BLACK OR AFRICAN AMERICAN,NOT HISPANIC OR LATINO,ARM3,Treatment 3,ARM3,Treatment 3,AZ,2026-01-28,2026-08-31,2026-05-23,2026-08-13,2026-07-15,2026-08-31,NA,NA,Treatment 3,Treatment 3,2026-05-23,2026-08-13,83,Y
STUDY001,STUDY001-SUBJ0020,SUBJ0020,28,48,YEARS,F,OTHER,NOT HISPANIC OR LATINO,ARM2,Treatment 2,ARM2,Treatment 2,NA,2026-02-16,2026-08-13,2025-12-13,2026-09-08,2026-02-18,2026-08-13,NA,NA,Treatment 2,Treatment 2,2025-12-13,2026-09-08,270,Y
STUDY001,STUDY001-SUBJ0021,SUBJ0021,46,52,YEARS,F,AMERICAN INDIAN OR ALASKA NATIVE,HISPANIC OR LATINO,ARM1,Treatment 1,ARM1,Treatment 1,SD,2026-04-01,2026-08-16,2025-12-09,2026-09-08,2025-11-27,2026-08-16,NA,NA,Treatment 1,Treatment 1,2025-12-09,2026-09-08,274,Y
STUDY001,STUDY001-SUBJ0022,SUBJ0022,43,26,YEARS,M,WHITE,NOT HISPANIC OR LATINO,ARM3,Treatment 3,ARM3,Treatment 3,MC,2025-10-22,2026-08-15,2026-05-30,2026-08-30,2026-04-03,2026-08-15,NA,NA,Treatment 3,Treatment 3,2026-05-30,2026-08-30,93,Y
STUDY001,STUDY001-SUBJ0023,SUBJ0023,5,56,YEARS,M,BLACK OR AFRICAN AMERICAN,NOT HISPANIC OR LATINO,ARM3,Treatment 3,ARM3,Treatment 3,FM,2025-11-05,2026-08-30,2026-01-26,2026-09-05,2026-07-07,2026-08-30,NA,NA,Treatment 3,Treatment 3,2026-01-26,2026-09-05,223,Y
STUDY001,STUDY001-SUBJ0024,SUBJ0024,11,74,YEARS,F,AMERICAN INDIAN OR ALASKA NATIVE,HISPANIC OR LATINO,ARM1,Treatment 1,ARM1,Treatment 1,PW,2026-07-08,2026-09-01,2026-04-18,2026-09-01,2026-02-02,2026-09-01,NA,NA,Treatment 1,Treatment 1,2026-04-18,2026-09-01,137,Y
STUDY001,STUDY001-SUBJ0025,SUBJ0025,45,51,YEARS,F,OTHER,HISPANIC OR LATINO,ARM2,Treatment 2,ARM2,Treatment 2,TD,2025-10-28,2026-08-27,2026-02-14,2026-09-02,2026-07-19,2026-08-27,NA,NA,Treatment 2,Treatment 2,2026-02-14,2026-09-02,201,Y
STUDY001,STUDY001-SUBJ0026,SUBJ0026,40,20,YEARS,F,ASIAN,NOT HISPANIC OR LATINO,ARM3,Treatment 3,ARM3,Treatment 3,UY,2026-04-29,2026-08-21,2025-09-17,2026-08-13,2025-09-18,2026-08-21,NA,NA,Treatment 3,Treatment 3,2025-09-17,2026-08-13,331,Y
STUDY001,STUDY001-SUBJ0027,SUBJ0027,17,44,YEARS,M,WHITE,HISPANIC OR LATINO,ARM2,Treatment 2,ARM2,Treatment 2,IQ,2026-04-04,2026-09-05,2025-11-12,2026-09-04,2026-04-12,2026-09-05,NA,NA,Treatment 2,Treatment 2,2025-11-12,2026-09-04,297,Y
STUDY001,STUDY001-SUBJ0028,SUBJ0028,39,68,YEARS,M,AMERICAN INDIAN OR ALASKA NATIVE,NOT HISPANIC OR LATINO,ARM1,Treatment 1,ARM1,Treatment 1,BD,2025-12-30,2026-08-15,2025-10-27,2026-08-15,2025-12-08,2026-08-15,NA,NA,Treatment 1,Treatment 1,2025-10-27,2026-08-15,293,Y
STUDY001,STUDY001-SUBJ0029,SUBJ0029,47,48,YEARS,M,AMERICAN INDIAN OR ALASKA NATIVE,HISPANIC OR LATINO,ARM2,Treatment 2,ARM2,Treatment 2,GT,2026-08-03,2026-08-20,2025-12-19,2026-08-19,2026-05-17,2026-08-20,NA,NA,Treatment 2,Treatment 2,2025-12-19,2026-08-19,244,Y
STUDY001,STUDY001-SUBJ0030,SUBJ0030,2,29,YEARS,M,WHITE,HISPANIC OR LATINO,ARM1,Treatment 1,ARM1,Treatment 1,BJ,2026-05-03,2026-08-24,2026-03-25,2026-08-13,2025-09-25,2026-08-24,NA,NA,Treatment 1,Treatment 1,2026-03-25,2026-08-13,142,Y
STUDY001,STUDY001-SUBJ0031,SUBJ0031,20,22,YEARS,M,WHITE,HISPANIC OR LATINO,ARM1,Treatment 1,ARM1,Treatment 1,BS,2026-02-14,2026-09-03,2026-03-15,2026-08-25,2025-10-25,2026-09-03,NA,NA,Treatment 1,Treatment 1,2026-03-15,2026-08-25,164,Y
STUDY001,STUDY001-SUBJ0032,SUBJ0032,30,20,YEARS,F,WHITE,NOT HISPANIC OR LATINO,ARM2,Treatment 2,ARM2,Treatment 2,KN,2026-04-21,2026-08-14,2026-02-06,2026-08-23,2026-04-20,2026-08-14,NA,NA,Treatment 2,Treatment 2,2026-02-06,2026-08-23,199,Y
STUDY001,STUDY001-SUBJ0033,SUBJ0033,33,56,YEARS,M,BLACK OR AFRICAN AMERICAN,NOT HISPANIC OR LATINO,ARM1,Treatment 1,ARM1,Treatment 1,MT,2026-01-07,2026-08-16,2025-12-03,2026-09-04,2026-03-01,2026-08-16,NA,NA,Treatment 1,Treatment 1,2025-12-03,2026-09-04,276,Y
STUDY001,STUDY001-SUBJ0034,SUBJ0034,32,50,YEARS,F,AMERICAN INDIAN OR ALASKA NATIVE,NOT HISPANIC OR LATINO,ARM3,Treatment 3,ARM3,Treatment 3,GW,2025-10-15,2026-09-01,2025-12-17,2026-09-01,2026-07-31,2026-09-01,NA,NA,Treatment 3,Treatment 3,2025-12-17,2026-09-01,259,Y
STUDY001,STUDY001-SUBJ0035,SUBJ0035,36,71,YEARS,F,AMERICAN INDIAN OR ALASKA NATIVE,HISPANIC OR LATINO,ARM2,Treatment 2,ARM2,Treatment 2,ER,2026-07-08,2026-08-23,2026-01-07,2026-08-30,2026-01-08,2026-08-23,NA,NA,Treatment 2,Treatment 2,2026-01-07,2026-08-30,236,Y
STUDY001,STUDY001-SUBJ0036,SUBJ0036,8,55,YEARS,F,OTHER,HISPANIC OR LATINO,ARM3,Treatment 3,ARM3,Treatment 3,MM,2026-07-17,2026-08-15,2025-09-28,2026-08-13,2026-02-10,2026-08-15,NA,NA,Treatment 3,Treatment 3,2025-09-28,2026-08-13,320,Y
STUDY001,STUDY001-SUBJ0037,SUBJ0037,1,27,YEARS,M,BLACK OR AFRICAN AMERICAN,HISPANIC OR LATINO,ARM2,Treatment 2,ARM2,Treatment 2,PS,2026-03-13,2026-08-13,2026-04-17,2026-09-06,2026-06-02,2026-08-13,NA,NA,Treatment 2,Treatment 2,2026-04-17,2026-09-06,143,Y
STUDY001,STUDY001-SUBJ0038,SUBJ0038,31,44,YEARS,M,AMERICAN INDIAN OR ALASKA NATIVE,HISPANIC OR LATINO,ARM2,Treatment 2,ARM2,Treatment 2,MD,2025-10-26,2026-08-29,2025-09-17,2026-08-15,2026-08-11,2026-08-29,NA,NA,Treatment 2,Treatment 2,2025-09-17,2026-08-15,333,Y
STUDY001,STUDY001-SUBJ0039,SUBJ0039,23,59,YEARS,M,AMERICAN INDIAN OR ALASKA NATIVE,NOT HISPANIC OR LATINO,ARM3,Treatment 3,ARM3,Treatment 3,DM,2025-12-29,2026-08-22,2026-07-21,2026-08-17,2026-05-13,2026-08-22,NA,NA,Treatment 3,Treatment 3,2026-07-21,2026-08-17,28,Y
STUDY001,STUDY001-SUBJ0040,SUBJ0040,47,66,YEARS,F,WHITE,HISPANIC OR LATINO,ARM2,Treatment 2,ARM2,Treatment 2,HN,2026-06-03,2026-08-31,2026-05-05,2026-08-17,2026-01-26,2026-08-31,NA,NA,Treatment 2,Treatment 2,2026-05-05,2026-08-17,105,Y
STUDY001,STUDY001-SUBJ0041,SUBJ0041,19,53,YEARS,M,AMERICAN INDIAN OR ALASKA NATIVE,NOT HISPANIC OR LATINO,ARM3,Treatment 3,ARM3,Treatment 3,IQ,2026-01-03,2026-08-23,2026-03-17,2026-09-08,2026-05-13,2026-08-23,NA,NA,Treatment 3,Treatment 3,2026-03-17,2026-09-08,176,Y
STUDY001,STUDY001-SUBJ0042,SUBJ0042,34,60,YEARS,M,WHITE,NOT HISPANIC OR LATINO,ARM2,Treatment 2,ARM2,Treatment 2,AR,2026-03-15,2026-08-19,2025-10-21,2026-09-02,2025-09-15,2026-08-19,NA,NA,Treatment 2,Treatment 2,2025-10-21,2026-09-02,317,Y
STUDY001,STUDY001-SUBJ0043,SUBJ0043,15,29,YEARS,M,WHITE,HISPANIC OR LATINO,ARM2,Treatment 2,ARM2,Treatment 2,IT,2026-04-27,2026-09-02,2025-10-12,2026-08-21,2026-07-30,2026-09-02,NA,NA,Treatment 2,Treatment 2,2025-10-12,2026-08-21,314,Y
STUDY001,STUDY001-SUBJ0044,SUBJ0044,39,72,YEARS,M,ASIAN,NOT HISPANIC OR LATINO,ARM2,Treatment 2,ARM2,Treatment 2,SA,2026-05-29,2026-09-11,2026-04-07,2026-08-26,2026-02-11,2026-09-11,NA,NA,Treatment 2,Treatment 2,2026-04-07,2026-08-26,142,Y
STUDY001,STUDY001-SUBJ0045,SUBJ0045,35,24,YEARS,M,ASIAN,NOT HISPANIC OR LATINO,ARM1,Treatment 1,ARM1,Treatment 1,TR,2025-11-07,2026-09-11,2025-11-20,2026-08-17,2025-09-19,2026-09-11,NA,NA,Treatment 1,Treatment 1,2025-11-20,2026-08-17,271,Y
STUDY001,STUDY001-SUBJ0046,SUBJ0046,37,54,YEARS,F,OTHER,NOT HISPANIC OR LATINO,ARM1,Treatment 1,ARM1,Treatment 1,NZ,2026-04-05,2026-09-05,2025-11-23,2026-09-03,2025-12-21,2026-09-05,NA,NA,Treatment 1,Treatment 1,2025-11-23,2026-09-03,285,Y
STUDY001,STUDY001-SUBJ0047,SUBJ0047,17,80,YEARS,F,OTHER,NOT HISPANIC OR LATINO,ARM2,Treatment 2,ARM2,Treatment 2,DZ,2026-06-07,2026-09-06,2026-04-04,2026-09-01,2026-04-15,2026-09-06,NA,NA,Treatment 2,Treatment 2,2026-04-04,2026-09-01,151,Y
STUDY001,STUDY001-SUBJ0048,SUBJ0048,7,38,YEARS,F,BLACK OR AFRICAN AMERICAN,HISPANIC OR LATINO,ARM3,Treatment 3,ARM3,Treatment 3,BF,2026-01-14,2026-09-09,2025-11-16,2026-09-09,2025-10-07,2026-09-09,NA,NA,Treatment 3,Treatment 3,2025-11-16,2026-09-09,298,Y
STUDY001,STUDY001-SUBJ0049,SUBJ0049,37,49,YEARS,M,AMERICAN INDIAN OR ALASKA NATIVE,HISPANIC OR LATINO,ARM1,Treatment 1,ARM1,Treatment 1,SI,2026-07-09,2026-09-01,2026-06-03,2026-09-07,2026-07-01,2026-09-01,NA,NA,Treatment 1,Treatment 1,2026-06-03,2026-09-07,97,Y
STUDY001,STUDY001-SUBJ0050,SUBJ0050,30,41,YEARS,M,AMERICAN INDIAN OR ALASKA NATIVE,HISPANIC OR LATINO,ARM3,Treatment 3,ARM3,Treatment 3,DZ,2025-12-09,2026-08-20,2026-04-18,2026-08-24,2026-03-29,2026-08-20,NA,NA,Treatment 3,Treatment 3,2026-04-18,2026-08-24,129,Y
STUDY001,STUDY001-SUBJ0051,SUBJ0051,36,44,YEARS,F,ASIAN,HISPANIC OR LATINO,ARM2,Treatment 2,ARM2,Treatment 2,SC,2026-06-24,2026-09-02,2026-05-02,2026-09-08,2026-02-27,2026-09-02,NA,NA,Treatment 2,Treatment 2,2026-05-02,2026-09-08,130,Y
STUDY001,STUDY001-SUBJ0052,SUBJ0052,6,18,YEARS,F,BLACK OR AFRICAN AMERICAN,HISPANIC OR LATINO,ARM2,Treatment 2,ARM2,Treatment 2,CR,2025-11-14,2026-08-26,2025-10-04,2026-08-19,2025-11-29,2026-08-26,NA,NA,Treatment 2,Treatment 2,2025-10-04,2026-08-19,320,Y
STUDY001,STUDY001-SUBJ0053,SUBJ0053,48,71,YEARS,F,BLACK OR AFRICAN AMERICAN,NOT HISPANIC OR LATINO,ARM3,Treatment 3,ARM3,Treatment 3,ZW,2026-05-24,2026-08-18,2025-09-26,2026-08-23,2026-05-07,2026-08-18,NA,NA,Treatment 3,Treatment 3,2025-09-26,2026-08-23,332,Y
STUDY001,STUDY001-SUBJ0054,SUBJ0054,46,36,YEARS,F,WHITE,HISPANIC OR LATINO,ARM1,Treatment 1,ARM1,Treatment 1,SR,2025-12-16,2026-08-13,2026-03-02,2026-08-20,2026-03-10,2026-08-13,NA,NA,Treatment 1,Treatment 1,2026-03-02,2026-08-20,172,Y
STUDY001,STUDY001-SUBJ0055,SUBJ0055,47,23,YEARS,F,WHITE,NOT HISPANIC OR LATINO,ARM1,Treatment 1,ARM1,Treatment 1,BE,2026-04-16,2026-08-13,2026-06-30,2026-09-02,2025-11-11,2026-08-13,NA,NA,Treatment 1,Treatment 1,2026-06-30,2026-09-02,65,Y
STUDY001,STUDY001-SUBJ0056,SUBJ0056,34,67,YEARS,F,BLACK OR AFRICAN AMERICAN,NOT HISPANIC OR LATINO,ARM3,Treatment 3,ARM3,Treatment 3,SV,2025-10-07,2026-08-22,2026-06-01,2026-08-16,2025-12-05,2026-08-22,NA,NA,Treatment 3,Treatment 3,2026-06-01,2026-08-16,77,Y
STUDY001,STUDY001-SUBJ0057,SUBJ0057,13,29,YEARS,F,ASIAN,HISPANIC OR LATINO,ARM3,Treatment 3,ARM3,Treatment 3,TJ,2026-01-05,2026-09-10,2026-05-16,2026-09-01,2026-01-21,2026-09-10,NA,NA,Treatment 3,Treatment 3,2026-05-16,2026-09-01,109,Y
STUDY001,STUDY001-SUBJ0058,SUBJ0058,2,44,YEARS,M,WHITE,NOT HISPANIC OR LATINO,ARM2,Treatment 2,ARM2,Treatment 2,DJ,2026-01-25,2026-09-11,2026-05-24,2026-08-18,2026-08-05,2026-09-11,NA,NA,Treatment 2,Treatment 2,2026-05-24,2026-08-18,87,Y
STUDY001,STUDY001-SUBJ0059,SUBJ0059,34,27,YEARS,F,ASIAN,HISPANIC OR LATINO,ARM3,Treatment 3,ARM3,Treatment 3,MN,2026-02-01,2026-08-29,2026-03-01,2026-08-24,2026-04-12,2026-08-29,NA,NA,Treatment 3,Treatment 3,2026-03-01,2026-08-24,177,Y
STUDY001,STUDY001-SUBJ0060,SUBJ0060,5,29,YEARS,M,ASIAN,HISPANIC OR LATINO,ARM1,Treatment 1,ARM1,Treatment 1,DO,2026-03-09,2026-09-05,2026-07-09,2026-08-25,2026-07-24,2026-09-05,NA,NA,Treatment 1,Treatment 1,2026-07-09,2026-08-25,48,Y
STUDY001,STUDY001-SUBJ0061,SUBJ0061,35,49,YEARS,M,WHITE,HISPANIC OR LATINO,ARM2,Treatment 2,ARM2,Treatment 2,AD,2026-05-08,2026-09-02,2025-10-30,2026-09-06,2025-10-21,2026-09-02,NA,NA,Treatment 2,Treatment 2,2025-10-30,2026-09-06,312,Y
STUDY001,STUDY001-SUBJ0062,SUBJ0062,45,70,YEARS,F,WHITE,HISPANIC OR LATINO,ARM2,Treatment 2,ARM2,Treatment 2,LC,2026-04-21,2026-08-20,2025-11-08,2026-09-07,2026-02-17,2026-08-20,NA,NA,Treatment 2,Treatment 2,2025-11-08,2026-09-07,304,Y
STUDY001,STUDY001-SUBJ0063,SUBJ0063,30,43,YEARS,M,ASIAN,NOT HISPANIC OR LATINO,ARM3,Treatment 3,ARM3,Treatment 3,DJ,2026-06-13,2026-08-13,2026-05-03,2026-09-05,2026-05-24,2026-08-13,NA,NA,Treatment 3,Treatment 3,2026-05-03,2026-09-05,126,Y
STUDY001,STUDY001-SUBJ0064,SUBJ0064,38,42,YEARS,M,WHITE,HISPANIC OR LATINO,ARM3,Treatment 3,ARM3,Treatment 3,CF,2026-01-30,2026-09-05,2026-01-07,2026-08-24,2025-10-06,2026-09-05,NA,NA,Treatment 3,Treatment 3,2026-01-07,2026-08-24,230,Y
STUDY001,STUDY001-SUBJ0065,SUBJ0065,27,77,YEARS,F,WHITE,NOT HISPANIC OR LATINO,ARM3,Treatment 3,ARM2,Treatment 2,KG,2026-05-17,2026-08-14,2026-01-18,2026-09-10,2025-12-19,2026-08-14,NA,NA,Treatment 3,Treatment 2,2026-01-18,2026-09-10,236,Y
STUDY001,STUDY001-SUBJ0066,SUBJ0066,35,30,YEARS,F,WHITE,HISPANIC OR LATINO,ARM1,Treatment 1,ARM1,Treatment 1,GY,2025-10-28,2026-08-19,2026-08-10,2026-09-04,2025-09-25,2026-08-19,NA,NA,Treatment 1,Treatment 1,2026-08-10,2026-09-04,26,Y
STUDY001,STUDY001-SUBJ0067,SUBJ0067,49,65,YEARS,F,WHITE,HISPANIC OR LATINO,ARM1,Treatment 1,ARM1,Treatment 1,VC,2025-12-25,2026-09-02,2026-06-25,2026-08-17,2025-12-28,2026-09-02,NA,NA,Treatment 1,Treatment 1,2026-06-25,2026-08-17,54,Y
STUDY001,STUDY001-SUBJ0068,SUBJ0068,48,63,YEARS,F,AMERICAN INDIAN OR ALASKA NATIVE,HISPANIC OR LATINO,ARM2,Treatment 2,ARM2,Treatment 2,SE,2025-11-18,2026-08-18,2026-02-01,2026-08-31,2026-07-13,2026-08-18,NA,NA,Treatment 2,Treatment 2,2026-02-01,2026-08-31,212,Y
STUDY001,STUDY001-SUBJ0069,SUBJ0069,15,20,YEARS,M,AMERICAN INDIAN OR ALASKA NATIVE,HISPANIC OR LATINO,ARM1,Treatment 1,ARM1,Treatment 1,MW,2025-12-19,2026-08-15,2026-05-22,2026-08-16,2025-10-26,2026-08-15,NA,NA,Treatment 1,Treatment 1,2026-05-22,2026-08-16,87,Y
STUDY001,STUDY001-SUBJ0070,SUBJ0070,36,50,YEARS,F,BLACK OR AFRICAN AMERICAN,HISPANIC OR LATINO,ARM1,Treatment 1,ARM1,Treatment 1,ME,2025-11-27,2026-08-29,2025-11-22,2026-09-04,2026-04-03,2026-08-29,NA,NA,Treatment 1,Treatment 1,2025-11-22,2026-09-04,287,Y
STUDY001,STUDY001-SUBJ0071,SUBJ0071,33,26,YEARS,F,BLACK OR AFRICAN AMERICAN,NOT HISPANIC OR LATINO,ARM1,Treatment 1,ARM1,Treatment 1,MV,2026-03-17,2026-09-07,2026-05-19,2026-09-08,2026-02-02,2026-09-07,NA,NA,Treatment 1,Treatment 1,2026-05-19,2026-09-08,113,Y
STUDY001,STUDY001-SUBJ0072,SUBJ0072,36,18,YEARS,F,WHITE,NOT HISPANIC OR LATINO,ARM3,Treatment 3,ARM3,Treatment 3,KE,2025-11-15,2026-08-17,2026-05-12,2026-08-16,2025-10-01,2026-08-17,NA,NA,Treatment 3,Treatment 3,2026-05-12,2026-08-16,97,Y
STUDY001,STUDY001-SUBJ0073,SUBJ0073,14,28,YEARS,F,WHITE,HISPANIC OR LATINO,ARM1,Treatment 1,ARM1,Treatment 1,TR,2026-04-05,2026-09-04,2026-07-26,2026-08-16,2026-07-01,2026-09-04,NA,NA,Treatment 1,Treatment 1,2026-07-26,2026-08-16,22,Y
STUDY001,STUDY001-SUBJ0074,SUBJ0074,18,66,YEARS,F,ASIAN,NOT HISPANIC OR LATINO,ARM2,Treatment 2,ARM2,Treatment 2,DO,2026-05-17,2026-09-09,2025-09-19,2026-08-14,2025-10-18,2026-09-09,NA,NA,Treatment 2,Treatment 2,2025-09-19,2026-08-14,330,Y
STUDY001,STUDY001-SUBJ0075,SUBJ0075,42,70,YEARS,F,WHITE,HISPANIC OR LATINO,ARM1,Treatment 1,ARM1,Treatment 1,JP,2025-12-09,2026-09-02,2026-05-04,2026-09-03,2026-04-01,2026-09-02,NA,NA,Treatment 1,Treatment 1,2026-05-04,2026-09-03,123,Y
STUDY001,STUDY001-SUBJ0076,SUBJ0076,44,75,YEARS,F,BLACK OR AFRICAN AMERICAN,HISPANIC OR LATINO,ARM2,Treatment 2,ARM2,Treatment 2,KW,2025-10-31,2026-08-27,2026-01-07,2026-08-18,2026-07-02,2026-08-27,NA,NA,Treatment 2,Treatment 2,2026-01-07,2026-08-18,224,Y
STUDY001,STUDY001-SUBJ0077,SUBJ0077,44,20,YEARS,F,AMERICAN INDIAN OR ALASKA NATIVE,NOT HISPANIC OR LATINO,ARM3,Treatment 3,ARM3,Treatment 3,NI,2026-06-06,2026-08-19,2025-10-12,2026-08-23,2026-01-20,2026-08-19,NA,NA,Treatment 3,Treatment 3,2025-10-12,2026-08-23,316,Y
STUDY001,STUDY001-SUBJ0078,SUBJ0078,38,35,YEARS,M,AMERICAN INDIAN OR ALASKA NATIVE,HISPANIC OR LATINO,ARM3,Treatment 3,ARM3,Treatment 3,AG,2025-11-01,2026-09-04,2026-03-23,2026-08-27,2026-05-10,2026-09-04,NA,NA,Treatment 3,Treatment 3,2026-03-23,2026-08-27,158,Y
STUDY001,STUDY001-SUBJ0079,SUBJ0079,16,49,YEARS,M,AMERICAN INDIAN OR ALASKA NATIVE,NOT HISPANIC OR LATINO,ARM2,Treatment 2,ARM2,Treatment 2,TG,2025-09-28,2026-08-14,2026-04-13,2026-08-20,2026-03-17,2026-08-14,NA,NA,Treatment 2,Treatment 2,2026-04-13,2026-08-20,130,Y
STUDY001,STUDY001-SUBJ0080,SUBJ0080,6,32,YEARS,M,AMERICAN INDIAN OR ALASKA NATIVE,NOT HISPANIC OR LATINO,ARM1,Treatment 1,ARM1,Treatment 1,MD,2026-08-10,2026-08-25,2025-11-26,2026-08-18,2026-04-14,2026-08-25,NA,NA,Treatment 1,Treatment 1,2025-11-26,2026-08-18,266,Y
STUDY001,STUDY001-SUBJ0081,SUBJ0081,43,68,YEARS,M,ASIAN,HISPANIC OR LATINO,ARM2,Treatment 2,ARM2,Treatment 2,SO,2025-12-11,2026-09-05,2026-05-15,2026-09-08,2026-07-09,2026-09-05,NA,NA,Treatment 2,Treatment 2,2026-05-15,2026-09-08,117,Y
STUDY001,STUDY001-SUBJ0082,SUBJ0082,12,45,YEARS,F,AMERICAN INDIAN OR ALASKA NATIVE,NOT HISPANIC OR LATINO,ARM2,Treatment 2,ARM2,Treatment 2,OM,2026-03-04,2026-08-16,2025-10-16,2026-08-31,2025-09-25,2026-08-16,NA,NA,Treatment 2,Treatment 2,2025-10-16,2026-08-31,320,Y
STUDY001,STUDY001-SUBJ0083,SUBJ0083,10,33,YEARS,M,ASIAN,HISPANIC OR LATINO,ARM3,Treatment 3,ARM3,Treatment 3,BH,2026-04-10,2026-09-10,2026-04-30,2026-08-17,2025-09-27,2026-09-10,NA,NA,Treatment 3,Treatment 3,2026-04-30,2026-08-17,110,Y
STUDY001,STUDY001-SUBJ0084,SUBJ0084,43,22,YEARS,F,ASIAN,HISPANIC OR LATINO,ARM1,Treatment 1,ARM1,Treatment 1,CR,2026-07-27,2026-09-08,2026-03-11,2026-08-26,2025-09-26,2026-09-08,NA,NA,Treatment 1,Treatment 1,2026-03-11,2026-08-26,169,Y
STUDY001,STUDY001-SUBJ0085,SUBJ0085,45,29,YEARS,M,WHITE,HISPANIC OR LATINO,ARM1,Treatment 1,ARM1,Treatment 1,EE,2026-07-27,2026-08-29,2026-01-22,2026-09-09,2025-12-30,2026-08-29,NA,NA,Treatment 1,Treatment 1,2026-01-22,2026-09-09,231,Y
STUDY001,STUDY001-SUBJ0086,SUBJ0086,28,42,YEARS,F,BLACK OR AFRICAN AMERICAN,NOT HISPANIC OR LATINO,ARM1,Treatment 1,ARM1,Treatment 1,AO,2025-12-17,2026-08-15,2026-02-13,2026-09-09,2026-07-10,2026-08-15,NA,NA,Treatment 1,Treatment 1,2026-02-13,2026-09-09,209,Y
STUDY001,STUDY001-SUBJ0087,SUBJ0087,18,71,YEARS,F,ASIAN,NOT HISPANIC OR LATINO,ARM1,Treatment 1,ARM1,Treatment 1,CU,2026-03-07,2026-09-11,2026-03-11,2026-09-10,2026-07-28,2026-09-11,NA,NA,Treatment 1,Treatment 1,2026-03-11,2026-09-10,184,Y
STUDY001,STUDY001-SUBJ0088,SUBJ0088,42,32,YEARS,M,WHITE,HISPANIC OR LATINO,ARM3,Treatment 3,ARM3,Treatment 3,LB,2026-03-17,2026-09-06,2026-05-01,2026-08-19,2025-12-27,2026-09-06,NA,NA,Treatment 3,Treatment 3,2026-05-01,2026-08-19,111,Y
STUDY001,STUDY001-SUBJ0089,SUBJ0089,21,63,YEARS,M,WHITE,NOT HISPANIC OR LATINO,ARM1,Treatment 1,ARM1,Treatment 1,LR,2025-12-09,2026-08-26,2026-03-20,2026-09-11,2026-06-14,2026-08-26,NA,NA,Treatment 1,Treatment 1,2026-03-20,2026-09-11,176,Y
STUDY001,STUDY001-SUBJ0090,SUBJ0090,21,53,YEARS,F,ASIAN,NOT HISPANIC OR LATINO,ARM3,Treatment 3,ARM3,Treatment 3,QA,2026-06-01,2026-08-29,2026-06-17,2026-08-19,2025-09-14,2026-08-29,NA,NA,Treatment 3,Treatment 3,2026-06-17,2026-08-19,64,Y
STUDY001,STUDY001-SUBJ0091,SUBJ0091,22,72,YEARS,M,AMERICAN INDIAN OR ALASKA NATIVE,HISPANIC OR LATINO,ARM1,Treatment 1,ARM1,Treatment 1,KN,2025-11-12,2026-08-15,2026-02-15,2026-09-06,2025-11-22,2026-08-15,NA,NA,Treatment 1,Treatment 1,2026-02-15,2026-09-06,204,Y
STUDY001,STUDY001-SUBJ0092,SUBJ0092,18,40,YEARS,F,ASIAN,HISPANIC OR LATINO,ARM3,Treatment 3,ARM3,Treatment 3,MT,2026-04-21,2026-08-18,2025-11-04,2026-08-16,2026-08-08,2026-08-18,NA,NA,Treatment 3,Treatment 3,2025-11-04,2026-08-16,286,Y
STUDY001,STUDY001-SUBJ0093,SUBJ0093,2,69,YEARS,F,OTHER,NOT HISPANIC OR LATINO,ARM1,Treatment 1,ARM1,Treatment 1,SD,2025-09-17,2026-09-11,2026-03-04,2026-08-22,2026-05-10,2026-09-11,NA,NA,Treatment 1,Treatment 1,2026-03-04,2026-08-22,172,Y
STUDY001,STUDY001-SUBJ0094,SUBJ0094,19,33,YEARS,F,AMERICAN INDIAN OR ALASKA NATIVE,HISPANIC OR LATINO,ARM2,Treatment 2,ARM2,Treatment 2,DM,2025-09-13,2026-08-19,2026-03-09,2026-09-08,2026-03-30,2026-08-19,NA,NA,Treatment 2,Treatment 2,2026-03-09,2026-09-08,184,Y
STUDY001,STUDY001-SUBJ0095,SUBJ0095,17,47,YEARS,M,AMERICAN INDIAN OR ALASKA NATIVE,HISPANIC OR LATINO,ARM1,Treatment 1,ARM1,Treatment 1,SE,2026-03-10,2026-08-28,2026-05-21,2026-08-27,2026-05-03,2026-08-28,NA,NA,Treatment 1,Treatment 1,2026-05-21,2026-08-27,99,Y
STUDY001,STUDY001-SUBJ0096,SUBJ0096,11,68,YEARS,F,WHITE,HISPANIC OR LATINO,ARM2,Treatment 2,ARM2,Treatment 2,SC,2026-01-10,2026-08-18,2026-07-26,2026-08-22,2026-05-23,2026-08-18,NA,NA,Treatment 2,Treatment 2,2026-07-26,2026-08-22,28,Y
STUDY001,STUDY001-SUBJ0097,SUBJ0097,1,41,YEARS,M,BLACK OR AFRICAN AMERICAN,HISPANIC OR LATINO,ARM1,Treatment 1,ARM1,Treatment 1,GA,2026-05-04,2026-08-19,2026-03-07,2026-08-26,2026-02-10,2026-08-19,NA,NA,Treatment 1,Treatment 1,2026-03-07,2026-08-26,173,Y
STUDY001,STUDY001-SUBJ0098,SUBJ0098,11,54,YEARS,F,ASIAN,HISPANIC OR LATINO,ARM2,Treatment 2,ARM2,Treatment 2,MK,2026-04-21,2026-08-26,2026-06-23,2026-08-22,2026-03-20,2026-08-26,NA,NA,Treatment 2,Treatment 2,2026-06-23,2026-08-22,61,Y
STUDY001,STUDY001-SUBJ0099,SUBJ0099,31,78,YEARS,F,WHITE,HISPANIC OR LATINO,ARM3,Treatment 3,ARM3,Treatment 3,AT,2026-04-21,2026-09-08,2026-03-08,2026-09-02,2026-04-29,2026-09-08,NA,NA,Treatment 3,Treatment 3,2026-03-08,2026-09-02,179,Y
STUDY001,STUDY001-SUBJ0100,SUBJ0100,26,20,YEARS,F,WHITE,HISPANIC OR LATINO,ARM3,Treatment 3,ARM3,Treatment 3,OM,2026-02-12,2026-08-16,2026-04-30,2026-08-24,2026-05-29,2026-08-16,NA,NA,Treatment 3,Treatment 3,2026-04-30,2026-08-24,117,Y
STUDY001,STUDY001-SUBJ0101,SUBJ0101,24,20,YEARS,F,BLACK OR AFRICAN AMERICAN,NOT HISPANIC OR LATINO,ARM3,Treatment 3,ARM3,Treatment 3,PH,2025-12-08,2026-08-22,2026-01-14,2026-09-10,2025-10-27,2026-08-22,NA,NA,Treatment 3,Treatment 3,2026-01-14,2026-09-10,240,Y
STUDY001,STUDY001-SUBJ0102,SUBJ0102,20,56,YEARS,M,WHITE,HISPANIC OR LATINO,ARM2,Treatment 2,ARM3,Treatment 3,WS,2025-11-17,2026-08-20,2026-07-30,2026-08-24,2025-11-19,2026-08-20,NA,NA,Treatment 2,Treatment 3,2026-07-30,2026-08-24,26,Y
STUDY001,STUDY001-SUBJ0103,SUBJ0103,11,43,YEARS,F,ASIAN,HISPANIC OR LATINO,ARM3,Treatment 3,ARM3,Treatment 3,BR,2026-04-19,2026-08-25,2026-02-02,2026-09-01,2025-11-09,2026-08-25,NA,NA,Treatment 3,Treatment 3,2026-02-02,2026-09-01,212,Y
STUDY001,STUDY001-SUBJ0104,SUBJ0104,13,40,YEARS,F,AMERICAN INDIAN OR ALASKA NATIVE,HISPANIC OR LATINO,ARM1,Treatment 1,ARM1,Treatment 1,TT,2026-07-16,2026-08-13,2026-05-04,2026-09-03,2026-03-04,2026-08-13,NA,NA,Treatment 1,Treatment 1,2026-05-04,2026-09-03,123,Y
STUDY001,STUDY001-SUBJ0105,SUBJ0105,45,53,YEARS,F,WHITE,HISPANIC OR LATINO,ARM1,Treatment 1,ARM1,Treatment 1,KZ,2026-05-13,2026-09-03,2025-12-12,2026-09-09,2026-02-07,2026-09-03,NA,NA,Treatment 1,Treatment 1,2025-12-12,2026-09-09,272,Y
STUDY001,STUDY001-SUBJ0106,SUBJ0106,27,74,YEARS,M,BLACK OR AFRICAN AMERICAN,HISPANIC OR LATINO,ARM2,Treatment 2,ARM2,Treatment 2,SL,2026-05-10,2026-08-30,2026-05-25,2026-08-22,2026-02-27,2026-08-30,NA,NA,Treatment 2,Treatment 2,2026-05-25,2026-08-22,90,Y
STUDY001,STUDY001-SUBJ0107,SUBJ0107,10,43,YEARS,F,WHITE,HISPANIC OR LATINO,ARM2,Treatment 2,ARM2,Treatment 2,CU,2026-05-21,2026-09-05,2026-06-29,2026-08-29,2026-08-07,2026-09-05,NA,NA,Treatment 2,Treatment 2,2026-06-29,2026-08-29,62,Y
STUDY001,STUDY001-SUBJ0108,SUBJ0108,19,25,YEARS,F,OTHER,HISPANIC OR LATINO,ARM1,Treatment 1,ARM1,Treatment 1,MM,2026-05-18,2026-08-27,2025-10-25,2026-08-19,2025-11-24,2026-08-27,NA,NA,Treatment 1,Treatment 1,2025-10-25,2026-08-19,299,Y
STUDY001,STUDY001-SUBJ0109,SUBJ0109,31,52,YEARS,M,OTHER,HISPANIC OR LATINO,ARM1,Treatment 1,ARM1,Treatment 1,CI,2025-10-29,2026-08-21,2025-12-10,2026-09-11,2026-02-04,2026-08-21,NA,NA,Treatment 1,Treatment 1,2025-12-10,2026-09-11,276,Y
STUDY001,STUDY001-SUBJ0110,SUBJ0110,19,41,YEARS,F,ASIAN,HISPANIC OR LATINO,ARM1,Treatment 1,ARM1,Treatment 1,MN,2026-05-28,2026-08-16,2026-07-19,2026-09-03,2026-07-22,2026-08-16,NA,NA,Treatment 1,Treatment 1,2026-07-19,2026-09-03,47,Y
STUDY001,STUDY001-SUBJ0111,SUBJ0111,18,79,YEARS,F,BLACK OR AFRICAN AMERICAN,NOT HISPANIC OR LATINO,ARM3,Treatment 3,ARM3,Treatment 3,ZA,2026-07-31,2026-08-19,2026-01-16,2026-08-16,2026-04-30,2026-08-19,NA,NA,Treatment 3,Treatment 3,2026-01-16,2026-08-16,213,Y
STUDY001,STUDY001-SUBJ0112,SUBJ0112,4,54,YEARS,M,BLACK OR AFRICAN AMERICAN,HISPANIC OR LATINO,ARM1,Treatment 1,ARM3,Treatment 3,ET,2026-04-18,2026-08-26,2025-11-10,2026-09-11,2026-08-10,2026-08-26,NA,NA,Treatment 1,Treatment 3,2025-11-10,2026-09-11,306,Y
STUDY001,STUDY001-SUBJ0113,SUBJ0113,31,68,YEARS,M,BLACK OR AFRICAN AMERICAN,HISPANIC OR LATINO,ARM2,Treatment 2,ARM2,Treatment 2,NI,2025-12-05,2026-09-03,2026-05-23,2026-09-09,2026-07-15,2026-09-03,NA,NA,Treatment 2,Treatment 2,2026-05-23,2026-09-09,110,Y
STUDY001,STUDY001-SUBJ0114,SUBJ0114,33,68,YEARS,F,AMERICAN INDIAN OR ALASKA NATIVE,HISPANIC OR LATINO,ARM2,Treatment 2,ARM2,Treatment 2,CN,2025-09-30,2026-08-20,2025-12-10,2026-09-11,2026-08-08,2026-08-20,NA,NA,Treatment 2,Treatment 2,2025-12-10,2026-09-11,276,Y
STUDY001,STUDY001-SUBJ0115,SUBJ0115,44,31,YEARS,M,AMERICAN INDIAN OR ALASKA NATIVE,HISPANIC OR LATINO,ARM3,Treatment 3,ARM3,Treatment 3,NE,2025-09-14,2026-09-05,2026-07-24,2026-08-26,2026-06-03,2026-09-05,NA,NA,Treatment 3,Treatment 3,2026-07-24,2026-08-26,34,Y
STUDY001,STUDY001-SUBJ0116,SUBJ0116,26,58,YEARS,M,AMERICAN INDIAN OR ALASKA NATIVE,NOT HISPANIC OR LATINO,ARM3,Treatment 3,ARM3,Treatment 3,TD,2026-07-10,2026-08-14,2025-10-09,2026-08-31,2025-09-18,2026-08-14,NA,NA,Treatment 3,Treatment 3,2025-10-09,2026-08-31,327,Y
STUDY001,STUDY001-SUBJ0117,SUBJ0117,13,20,YEARS,M,WHITE,HISPANIC OR LATINO,ARM1,Treatment 1,ARM1,Treatment 1,GR,2026-06-02,2026-09-11,2026-08-08,2026-09-09,2026-03-07,2026-09-11,NA,NA,Treatment 1,Treatment 1,2026-08-08,2026-09-09,33,Y
STUDY001,STUDY001-SUBJ0118,SUBJ0118,17,34,YEARS,F,BLACK OR AFRICAN AMERICAN,NOT HISPANIC OR LATINO,ARM3,Treatment 3,ARM3,Treatment 3,PS,2026-01-19,2026-09-09,2026-01-11,2026-08-17,2026-07-29,2026-09-09,NA,NA,Treatment 3,Treatment 3,2026-01-11,2026-08-17,219,Y
STUDY001,STUDY001-SUBJ0119,SUBJ0119,9,42,YEARS,M,OTHER,HISPANIC OR LATINO,ARM3,Treatment 3,ARM3,Treatment 3,SV,2026-05-17,2026-09-09,2025-10-23,2026-09-01,2026-06-23,2026-09-09,NA,NA,Treatment 3,Treatment 3,2025-10-23,2026-09-01,314,Y
STUDY001,STUDY001-SUBJ0120,SUBJ0120,35,44,YEARS,F,OTHER,NOT HISPANIC OR LATINO,ARM2,Treatment 2,ARM2,Treatment 2,AR,2026-06-15,2026-09-01,2025-11-25,2026-09-04,2026-01-30,2026-09-01,NA,NA,Treatment 2,Treatment 2,2025-11-25,2026-09-04,284,Y
