STUDYID,DOMAIN,USUBJID,AESEQ,AESPID,AETERM,AEDECOD,AEBODSYS,AESOC,AESEV,AETOXGR,AESER,AEREL,AEACN,AEOUT,AESTDTC,AEENDTC,AESTDY,AEENDY,AEDUR,AECONTRT,AESDTH,AESLIFE,AESHOSP,AESDISAB,AESMIE,AEACNOTH
STUDY001,AE,STUDY001-SUBJ0001,1,AE1,COUGH,COUGH,GASTROINTESTINAL DISORDERS,GASTROINTESTINAL DISORDERS,SEVERE,3,Y,NOT RELATED,DOSE REDUCED,FATAL,2026-07-06,2026-07-24,18,36,18,N,Y,Y,N,N,N,
STUDY001,AE,STUDY001-SUBJ0001,2,AE2,FATIGUE,FATIGUE,CARDIAC DISORDERS,CARDIAC DISORDERS,MILD,1,N,RELATED,DOSE REDUCED,RECOVERING/RESOLVING,2026-08-20,2026-08-20,63,63,0,Y,N,N,N,Y,N,
STUDY001,AE,STUDY001-SUBJ0001,3,AE3,DIZZINESS,DIZZINESS,RESPIRATORY DISORDERS,RESPIRATORY DISORDERS,MODERATE,2,N,RELATED,NOT APPLICABLE,NOT RECOVERED/NOT RESOLVED,2026-07-08,2026-07-26,20,38,18,Y,N,Y,Y,Y,Y,
STUDY001,AE,STUDY001-SUBJ0001,4,AE4,DIZZINESS,DIZZINESS,CARDIAC DISORDERS,CARDIAC DISORDERS,SEVERE,3,Y,RELATED,DRUG INTERRUPTED,NOT RECOVERED/NOT RESOLVED,2026-08-15,2026-08-15,58,58,0,N,N,N,Y,Y,Y,
STUDY001,AE,STUDY001-SUBJ0001,5,AE5,INSOMNIA,INSOMNIA,RESPIRATORY DISORDERS,RESPIRATORY DISORDERS,SEVERE,3,Y,RELATED,DOSE NOT CHANGED,RECOVERED/RESOLVED,2026-06-25,2026-06-27,7,9,2,Y,N,Y,N,N,Y,
STUDY001,AE,STUDY001-SUBJ0002,1,AE1,INSOMNIA,INSOMNIA,NERVOUS SYSTEM DISORDERS,NERVOUS SYSTEM DISORDERS,MODERATE,2,N,NOT RELATED,DOSE REDUCED,RECOVERING/RESOLVING,2026-04-01,2026-04-21,184,204,20,Y,N,Y,N,Y,N,
STUDY001,AE,STUDY001-SUBJ0003,1,AE1,DIZZINESS,DIZZINESS,CARDIAC DISORDERS,CARDIAC DISORDERS,MILD,1,N,RELATED,DOSE NOT CHANGED,RECOVERED/RESOLVED,2026-01-24,2026-03-29,9,73,64,N,N,Y,N,Y,N,
STUDY001,AE,STUDY001-SUBJ0003,2,AE2,VOMITING,VOMITING,NERVOUS SYSTEM DISORDERS,NERVOUS SYSTEM DISORDERS,SEVERE,3,Y,NOT RELATED,DOSE REDUCED,RECOVERED/RESOLVED,2026-02-12,,28,,,N,N,N,N,N,N,
STUDY001,AE,STUDY001-SUBJ0003,3,AE3,HEADACHE,HEADACHE,RESPIRATORY DISORDERS,RESPIRATORY DISORDERS,MODERATE,2,N,NOT RELATED,NOT APPLICABLE,RECOVERING/RESOLVING,2026-05-09,,114,,,Y,N,Y,N,N,Y,
STUDY001,AE,STUDY001-SUBJ0003,4,AE4,DIZZINESS,DIZZINESS,RESPIRATORY DISORDERS,RESPIRATORY DISORDERS,MODERATE,2,N,RELATED,DOSE REDUCED,RECOVERED/RESOLVED,2026-08-29,2026-08-30,226,227,1,N,N,N,N,N,N,
STUDY001,AE,STUDY001-SUBJ0003,5,AE5,HEADACHE,HEADACHE,GASTROINTESTINAL DISORDERS,GASTROINTESTINAL DISORDERS,SEVERE,3,Y,NOT RELATED,DOSE NOT CHANGED,NOT RECOVERED/NOT RESOLVED,2026-07-23,2026-08-27,189,224,35,N,N,N,Y,Y,N,
STUDY001,AE,STUDY001-SUBJ0004,1,AE1,INSOMNIA,INSOMNIA,RESPIRATORY DISORDERS,RESPIRATORY DISORDERS,SEVERE,3,Y,NOT RELATED,NOT APPLICABLE,NOT RECOVERED/NOT RESOLVED,2026-03-09,2026-05-16,152,220,68,N,N,N,Y,N,Y,
STUDY001,AE,STUDY001-SUBJ0004,2,AE2,PAIN,PAIN,RESPIRATORY DISORDERS,RESPIRATORY DISORDERS,SEVERE,3,Y,NOT RELATED,DRUG WITHDRAWN,RECOVERING/RESOLVING,2026-04-21,2026-07-31,195,296,101,Y,N,Y,Y,Y,N,
STUDY001,AE,STUDY001-SUBJ0004,3,AE3,NAUSEA,NAUSEA,GASTROINTESTINAL DISORDERS,GASTROINTESTINAL DISORDERS,MODERATE,2,N,RELATED,NOT APPLICABLE,FATAL,2025-10-22,2026-07-11,14,276,262,N,Y,N,Y,N,N,
STUDY001,AE,STUDY001-SUBJ0005,1,AE1,HEADACHE,HEADACHE,GASTROINTESTINAL DISORDERS,GASTROINTESTINAL DISORDERS,SEVERE,3,Y,NOT RELATED,DOSE REDUCED,RECOVERING/RESOLVING,2026-07-03,2026-08-07,71,106,35,N,N,N,N,Y,Y,
STUDY001,AE,STUDY001-SUBJ0005,2,AE2,RASH,RASH,NERVOUS SYSTEM DISORDERS,NERVOUS SYSTEM DISORDERS,MILD,1,N,NOT RELATED,DOSE REDUCED,FATAL,2026-08-18,2026-08-19,117,118,1,Y,Y,Y,Y,N,Y,
STUDY001,AE,STUDY001-SUBJ0006,1,AE1,COUGH,COUGH,NERVOUS SYSTEM DISORDERS,NERVOUS SYSTEM DISORDERS,MODERATE,2,N,RELATED,NOT APPLICABLE,RECOVERING/RESOLVING,2026-07-24,2026-07-27,48,51,3,N,N,Y,N,N,Y,
STUDY001,AE,STUDY001-SUBJ0006,2,AE2,INSOMNIA,INSOMNIA,GASTROINTESTINAL DISORDERS,GASTROINTESTINAL DISORDERS,MODERATE,2,N,NOT RELATED,DOSE REDUCED,RECOVERING/RESOLVING,2026-06-25,2026-07-21,19,45,26,Y,N,N,N,N,N,
STUDY001,AE,STUDY001-SUBJ0006,3,AE3,COUGH,COUGH,CARDIAC DISORDERS,CARDIAC DISORDERS,MODERATE,2,N,NOT RELATED,DRUG INTERRUPTED,RECOVERED/RESOLVED,2026-06-07,2026-07-12,1,36,35,Y,N,Y,N,Y,Y,
STUDY001,AE,STUDY001-SUBJ0006,4,AE4,HEADACHE,HEADACHE,NERVOUS SYSTEM DISORDERS,NERVOUS SYSTEM DISORDERS,MILD,1,N,NOT RELATED,DRUG WITHDRAWN,FATAL,2026-06-15,2026-07-20,9,44,35,N,Y,N,N,Y,N,
STUDY001,AE,STUDY001-SUBJ0008,1,AE1,VOMITING,VOMITING,GASTROINTESTINAL DISORDERS,GASTROINTESTINAL DISORDERS,MODERATE,2,N,RELATED,DRUG WITHDRAWN,NOT RECOVERED/NOT RESOLVED,2026-07-20,2026-08-03,28,42,14,N,N,N,N,N,N,
STUDY001,AE,STUDY001-SUBJ0008,2,AE2,RASH,RASH,GASTROINTESTINAL DISORDERS,GASTROINTESTINAL DISORDERS,SEVERE,3,Y,RELATED,DOSE REDUCED,FATAL,2026-07-24,,32,,,Y,Y,Y,Y,N,N,
STUDY001,AE,STUDY001-SUBJ0008,3,AE3,RASH,RASH,NERVOUS SYSTEM DISORDERS,NERVOUS SYSTEM DISORDERS,MODERATE,2,N,RELATED,DRUG INTERRUPTED,RECOVERED/RESOLVED,2026-07-23,2026-07-31,31,39,8,N,N,Y,N,Y,N,
STUDY001,AE,STUDY001-SUBJ0008,4,AE4,RASH,RASH,GASTROINTESTINAL DISORDERS,GASTROINTESTINAL DISORDERS,SEVERE,3,Y,RELATED,DOSE REDUCED,NOT RECOVERED/NOT RESOLVED,2026-08-09,2026-08-25,48,64,16,N,N,Y,N,Y,Y,
STUDY001,AE,STUDY001-SUBJ0008,5,AE5,RASH,RASH,NERVOUS SYSTEM DISORDERS,NERVOUS SYSTEM DISORDERS,SEVERE,3,Y,RELATED,NOT APPLICABLE,RECOVERED/RESOLVED,2026-07-29,2026-08-08,37,47,10,Y,N,Y,N,N,Y,
STUDY001,AE,STUDY001-SUBJ0009,1,AE1,COUGH,COUGH,RESPIRATORY DISORDERS,RESPIRATORY DISORDERS,SEVERE,3,Y,RELATED,DRUG INTERRUPTED,RECOVERED/RESOLVED,2026-08-07,2026-08-08,46,47,1,Y,N,N,N,N,Y,
STUDY001,AE,STUDY001-SUBJ0009,2,AE2,NAUSEA,NAUSEA,GASTROINTESTINAL DISORDERS,GASTROINTESTINAL DISORDERS,MODERATE,2,N,NOT RELATED,DOSE NOT CHANGED,FATAL,2026-07-28,2026-08-08,36,47,11,N,Y,Y,Y,N,N,
STUDY001,AE,STUDY001-SUBJ0009,3,AE3,FATIGUE,FATIGUE,GASTROINTESTINAL DISORDERS,GASTROINTESTINAL DISORDERS,MODERATE,2,N,RELATED,NOT APPLICABLE,RECOVERED/RESOLVED,2026-07-29,2026-08-02,37,41,4,N,N,N,N,Y,N,
STUDY001,AE,STUDY001-SUBJ0010,1,AE1,FEVER,FEVER,CARDIAC DISORDERS,CARDIAC DISORDERS,MODERATE,2,N,RELATED,DRUG INTERRUPTED,FATAL,2026-02-05,2026-04-30,33,117,84,Y,Y,N,N,N,Y,
STUDY001,AE,STUDY001-SUBJ0010,2,AE2,VOMITING,VOMITING,CARDIAC DISORDERS,CARDIAC DISORDERS,SEVERE,3,Y,RELATED,DRUG INTERRUPTED,FATAL,2026-08-07,2026-08-14,216,223,7,N,Y,Y,Y,Y,N,
STUDY001,AE,STUDY001-SUBJ0010,3,AE3,INSOMNIA,INSOMNIA,GASTROINTESTINAL DISORDERS,GASTROINTESTINAL DISORDERS,MODERATE,2,N,NOT RELATED,DRUG WITHDRAWN,FATAL,2026-01-20,,17,,,Y,Y,N,Y,N,Y,
STUDY001,AE,STUDY001-SUBJ0011,1,AE1,PAIN,PAIN,CARDIAC DISORDERS,CARDIAC DISORDERS,MODERATE,2,N,RELATED,DOSE NOT CHANGED,FATAL,2026-06-13,2026-08-18,131,197,66,Y,Y,Y,N,N,Y,
STUDY001,AE,STUDY001-SUBJ0011,2,AE2,DIZZINESS,DIZZINESS,NERVOUS SYSTEM DISORDERS,NERVOUS SYSTEM DISORDERS,MODERATE,2,N,RELATED,DOSE REDUCED,NOT RECOVERED/NOT RESOLVED,2026-02-07,2026-06-10,5,128,123,N,N,Y,Y,N,Y,
STUDY001,AE,STUDY001-SUBJ0011,3,AE3,FATIGUE,FATIGUE,GASTROINTESTINAL DISORDERS,GASTROINTESTINAL DISORDERS,MODERATE,2,N,RELATED,DRUG INTERRUPTED,FATAL,2026-05-30,2026-06-01,117,119,2,Y,Y,N,N,N,Y,
STUDY001,AE,STUDY001-SUBJ0011,4,AE4,PAIN,PAIN,CARDIAC DISORDERS,CARDIAC DISORDERS,SEVERE,3,Y,NOT RELATED,DOSE REDUCED,FATAL,2026-03-26,2026-06-24,52,142,90,Y,Y,Y,N,N,N,
STUDY001,AE,STUDY001-SUBJ0012,1,AE1,INSOMNIA,INSOMNIA,GASTROINTESTINAL DISORDERS,GASTROINTESTINAL DISORDERS,MODERATE,2,N,RELATED,DRUG INTERRUPTED,RECOVERED/RESOLVED,2026-08-19,,213,,,Y,N,N,N,Y,Y,
STUDY001,AE,STUDY001-SUBJ0012,2,AE2,PAIN,PAIN,NERVOUS SYSTEM DISORDERS,NERVOUS SYSTEM DISORDERS,MODERATE,2,N,NOT RELATED,DRUG WITHDRAWN,FATAL,2026-02-26,,39,,,N,Y,N,N,Y,Y,
STUDY001,AE,STUDY001-SUBJ0014,1,AE1,RASH,RASH,GASTROINTESTINAL DISORDERS,GASTROINTESTINAL DISORDERS,MODERATE,2,N,NOT RELATED,DOSE REDUCED,NOT RECOVERED/NOT RESOLVED,2026-04-09,,59,,,Y,N,Y,N,N,Y,
STUDY001,AE,STUDY001-SUBJ0014,2,AE2,COUGH,COUGH,CARDIAC DISORDERS,CARDIAC DISORDERS,MILD,1,N,RELATED,DOSE REDUCED,FATAL,2026-06-28,,139,,,N,Y,Y,N,Y,N,
STUDY001,AE,STUDY001-SUBJ0015,1,AE1,FATIGUE,FATIGUE,NERVOUS SYSTEM DISORDERS,NERVOUS SYSTEM DISORDERS,MODERATE,2,N,NOT RELATED,DRUG INTERRUPTED,RECOVERING/RESOLVING,2026-04-20,2026-05-18,127,155,28,Y,N,N,N,N,N,
STUDY001,AE,STUDY001-SUBJ0017,1,AE1,VOMITING,VOMITING,NERVOUS SYSTEM DISORDERS,NERVOUS SYSTEM DISORDERS,SEVERE,3,Y,RELATED,DOSE REDUCED,RECOVERED/RESOLVED,2026-08-19,2026-08-25,62,68,6,Y,N,Y,N,Y,Y,
STUDY001,AE,STUDY001-SUBJ0017,2,AE2,VOMITING,VOMITING,NERVOUS SYSTEM DISORDERS,NERVOUS SYSTEM DISORDERS,SEVERE,3,Y,RELATED,NOT APPLICABLE,RECOVERING/RESOLVING,2026-06-26,2026-08-24,8,67,59,N,N,N,Y,N,N,
STUDY001,AE,STUDY001-SUBJ0018,1,AE1,HEADACHE,HEADACHE,NERVOUS SYSTEM DISORDERS,NERVOUS SYSTEM DISORDERS,SEVERE,3,Y,RELATED,DOSE REDUCED,NOT RECOVERED/NOT RESOLVED,2026-07-13,2026-07-31,73,91,18,Y,N,N,N,N,N,
STUDY001,AE,STUDY001-SUBJ0018,2,AE2,HEADACHE,HEADACHE,GASTROINTESTINAL DISORDERS,GASTROINTESTINAL DISORDERS,MILD,1,N,RELATED,DRUG WITHDRAWN,NOT RECOVERED/NOT RESOLVED,2026-08-04,,95,,,Y,N,N,N,Y,N,
STUDY001,AE,STUDY001-SUBJ0018,3,AE3,PAIN,PAIN,GASTROINTESTINAL DISORDERS,GASTROINTESTINAL DISORDERS,MODERATE,2,N,NOT RELATED,NOT APPLICABLE,FATAL,2026-06-04,2026-06-09,34,39,5,Y,Y,N,Y,Y,Y,
STUDY001,AE,STUDY001-SUBJ0018,4,AE4,DIARRHEA,DIARRHEA,CARDIAC DISORDERS,CARDIAC DISORDERS,SEVERE,3,Y,RELATED,DRUG WITHDRAWN,NOT RECOVERED/NOT RESOLVED,2026-08-06,2026-08-12,97,103,6,N,N,N,N,Y,Y,
STUDY001,AE,STUDY001-SUBJ0018,5,AE5,RASH,RASH,CARDIAC DISORDERS,CARDIAC DISORDERS,SEVERE,3,Y,NOT RELATED,DRUG INTERRUPTED,RECOVERING/RESOLVING,2026-08-07,,98,,,Y,N,Y,Y,Y,N,
STUDY001,AE,STUDY001-SUBJ0019,1,AE1,VOMITING,VOMITING,CARDIAC DISORDERS,CARDIAC DISORDERS,MODERATE,2,N,NOT RELATED,NOT APPLICABLE,FATAL,2026-07-15,2026-08-10,35,61,26,N,Y,Y,Y,Y,N,
STUDY001,AE,STUDY001-SUBJ0019,2,AE2,COUGH,COUGH,CARDIAC DISORDERS,CARDIAC DISORDERS,SEVERE,3,Y,RELATED,NOT APPLICABLE,FATAL,2026-06-25,,15,,,N,Y,Y,Y,N,Y,
STUDY001,AE,STUDY001-SUBJ0019,3,AE3,HEADACHE,HEADACHE,RESPIRATORY DISORDERS,RESPIRATORY DISORDERS,MODERATE,2,N,NOT RELATED,DOSE NOT CHANGED,RECOVERED/RESOLVED,2026-08-14,2026-08-14,65,65,0,N,N,N,Y,Y,Y,
STUDY001,AE,STUDY001-SUBJ0020,1,AE1,PAIN,PAIN,RESPIRATORY DISORDERS,RESPIRATORY DISORDERS,MILD,1,N,RELATED,DOSE NOT CHANGED,FATAL,2026-04-08,2026-05-17,103,142,39,Y,Y,N,Y,N,N,
STUDY001,AE,STUDY001-SUBJ0020,2,AE2,FATIGUE,FATIGUE,CARDIAC DISORDERS,CARDIAC DISORDERS,MILD,1,N,NOT RELATED,DOSE NOT CHANGED,RECOVERED/RESOLVED,2026-01-19,2026-03-23,24,87,63,N,N,N,N,N,N,
STUDY001,AE,STUDY001-SUBJ0020,3,AE3,DIZZINESS,DIZZINESS,NERVOUS SYSTEM DISORDERS,NERVOUS SYSTEM DISORDERS,MODERATE,2,N,NOT RELATED,DRUG INTERRUPTED,RECOVERED/RESOLVED,2026-04-09,,104,,,N,N,N,Y,Y,Y,
STUDY001,AE,STUDY001-SUBJ0021,1,AE1,PAIN,PAIN,NERVOUS SYSTEM DISORDERS,NERVOUS SYSTEM DISORDERS,SEVERE,3,Y,NOT RELATED,NOT APPLICABLE,FATAL,2026-06-30,2026-08-07,83,121,38,N,Y,N,N,N,Y,
STUDY001,AE,STUDY001-SUBJ0022,1,AE1,INSOMNIA,INSOMNIA,GASTROINTESTINAL DISORDERS,GASTROINTESTINAL DISORDERS,SEVERE,3,Y,NOT RELATED,NOT APPLICABLE,RECOVERING/RESOLVING,2026-09-07,,269,,,Y,N,N,Y,N,N,
STUDY001,AE,STUDY001-SUBJ0022,2,AE2,HEADACHE,HEADACHE,GASTROINTESTINAL DISORDERS,GASTROINTESTINAL DISORDERS,MODERATE,2,N,RELATED,DRUG INTERRUPTED,NOT RECOVERED/NOT RESOLVED,2026-07-24,2026-08-06,224,237,13,Y,N,N,N,Y,Y,
STUDY001,AE,STUDY001-SUBJ0022,3,AE3,DIZZINESS,DIZZINESS,CARDIAC DISORDERS,CARDIAC DISORDERS,SEVERE,3,Y,NOT RELATED,DOSE NOT CHANGED,RECOVERED/RESOLVED,2026-04-12,,121,,,N,N,N,Y,Y,N,
STUDY001,AE,STUDY001-SUBJ0022,4,AE4,VOMITING,VOMITING,CARDIAC DISORDERS,CARDIAC DISORDERS,MODERATE,2,N,RELATED,DRUG WITHDRAWN,RECOVERED/RESOLVED,2026-03-13,2026-07-27,91,227,136,N,N,N,N,N,N,
STUDY001,AE,STUDY001-SUBJ0022,5,AE5,FATIGUE,FATIGUE,NERVOUS SYSTEM DISORDERS,NERVOUS SYSTEM DISORDERS,MILD,1,N,NOT RELATED,DRUG WITHDRAWN,RECOVERED/RESOLVED,2026-03-02,,80,,,Y,N,Y,Y,Y,N,
STUDY001,AE,STUDY001-SUBJ0023,1,AE1,DIARRHEA,DIARRHEA,CARDIAC DISORDERS,CARDIAC DISORDERS,MODERATE,2,N,RELATED,DOSE NOT CHANGED,FATAL,2026-07-17,,45,,,N,Y,Y,N,Y,Y,
STUDY001,AE,STUDY001-SUBJ0023,2,AE2,RASH,RASH,CARDIAC DISORDERS,CARDIAC DISORDERS,MODERATE,2,N,RELATED,DRUG WITHDRAWN,FATAL,2026-07-21,2026-08-11,49,70,21,N,Y,Y,N,N,Y,
STUDY001,AE,STUDY001-SUBJ0024,1,AE1,PAIN,PAIN,RESPIRATORY DISORDERS,RESPIRATORY DISORDERS,MODERATE,2,N,NOT RELATED,DRUG WITHDRAWN,RECOVERING/RESOLVING,2026-07-21,2026-07-22,153,154,1,Y,N,Y,Y,N,N,
STUDY001,AE,STUDY001-SUBJ0024,2,AE2,RASH,RASH,RESPIRATORY DISORDERS,RESPIRATORY DISORDERS,MILD,1,N,RELATED,DOSE NOT CHANGED,RECOVERING/RESOLVING,2026-03-24,,34,,,Y,N,N,N,Y,Y,
STUDY001,AE,STUDY001-SUBJ0025,1,AE1,INSOMNIA,INSOMNIA,NERVOUS SYSTEM DISORDERS,NERVOUS SYSTEM DISORDERS,MILD,1,N,NOT RELATED,DRUG INTERRUPTED,FATAL,2026-03-23,2026-05-18,96,152,56,Y,Y,Y,Y,Y,Y,
STUDY001,AE,STUDY001-SUBJ0025,2,AE2,RASH,RASH,NERVOUS SYSTEM DISORDERS,NERVOUS SYSTEM DISORDERS,MILD,1,N,RELATED,DRUG INTERRUPTED,NOT RECOVERED/NOT RESOLVED,2026-01-01,2026-02-26,15,71,56,Y,N,Y,N,Y,N,
STUDY001,AE,STUDY001-SUBJ0025,3,AE3,FATIGUE,FATIGUE,GASTROINTESTINAL DISORDERS,GASTROINTESTINAL DISORDERS,MILD,1,N,NOT RELATED,DRUG INTERRUPTED,RECOVERED/RESOLVED,2026-07-24,2026-08-10,219,236,17,N,N,Y,N,N,N,
STUDY001,AE,STUDY001-SUBJ0025,4,AE4,HEADACHE,HEADACHE,GASTROINTESTINAL DISORDERS,GASTROINTESTINAL DISORDERS,SEVERE,3,Y,RELATED,DRUG INTERRUPTED,RECOVERING/RESOLVING,2026-06-26,2026-07-23,191,218,27,N,N,Y,Y,N,Y,
STUDY001,AE,STUDY001-SUBJ0025,5,AE5,HEADACHE,HEADACHE,NERVOUS SYSTEM DISORDERS,NERVOUS SYSTEM DISORDERS,MODERATE,2,N,RELATED,NOT APPLICABLE,NOT RECOVERED/NOT RESOLVED,2026-02-09,,54,,,N,N,Y,N,N,N,
STUDY001,AE,STUDY001-SUBJ0026,1,AE1,COUGH,COUGH,NERVOUS SYSTEM DISORDERS,NERVOUS SYSTEM DISORDERS,MILD,1,N,NOT RELATED,DOSE NOT CHANGED,NOT RECOVERED/NOT RESOLVED,2026-01-18,2026-02-20,119,152,33,Y,N,N,Y,N,Y,
STUDY001,AE,STUDY001-SUBJ0026,2,AE2,INSOMNIA,INSOMNIA,GASTROINTESTINAL DISORDERS,GASTROINTESTINAL DISORDERS,MILD,1,N,NOT RELATED,DRUG INTERRUPTED,FATAL,2026-04-06,2026-06-29,197,281,84,N,Y,N,N,Y,N,
STUDY001,AE,STUDY001-SUBJ0026,3,AE3,DIARRHEA,DIARRHEA,RESPIRATORY DISORDERS,RESPIRATORY DISORDERS,MODERATE,2,N,RELATED,NOT APPLICABLE,FATAL,2026-02-14,2026-08-24,146,337,191,N,Y,Y,N,N,N,
STUDY001,AE,STUDY001-SUBJ0026,4,AE4,RASH,RASH,RESPIRATORY DISORDERS,RESPIRATORY DISORDERS,MODERATE,2,N,NOT RELATED,DOSE NOT CHANGED,NOT RECOVERED/NOT RESOLVED,2025-12-26,2026-01-05,96,106,10,N,N,Y,Y,N,N,
STUDY001,AE,STUDY001-SUBJ0026,5,AE5,PAIN,PAIN,GASTROINTESTINAL DISORDERS,GASTROINTESTINAL DISORDERS,SEVERE,3,Y,NOT RELATED,DRUG INTERRUPTED,RECOVERED/RESOLVED,2026-05-14,,235,,,N,N,Y,Y,N,Y,
STUDY001,AE,STUDY001-SUBJ0027,1,AE1,PAIN,PAIN,GASTROINTESTINAL DISORDERS,GASTROINTESTINAL DISORDERS,SEVERE,3,Y,NOT RELATED,DOSE REDUCED,NOT RECOVERED/NOT RESOLVED,2026-08-18,2026-08-22,53,57,4,N,N,Y,N,Y,N,
STUDY001,AE,STUDY001-SUBJ0027,2,AE2,HEADACHE,HEADACHE,RESPIRATORY DISORDERS,RESPIRATORY DISORDERS,MODERATE,2,N,NOT RELATED,DOSE NOT CHANGED,FATAL,2026-07-21,,25,,,Y,Y,Y,N,N,N,
STUDY001,AE,STUDY001-SUBJ0027,3,AE3,PAIN,PAIN,RESPIRATORY DISORDERS,RESPIRATORY DISORDERS,MODERATE,2,N,RELATED,DRUG INTERRUPTED,FATAL,2026-07-17,2026-07-30,21,34,13,Y,Y,Y,N,N,N,
STUDY001,AE,STUDY001-SUBJ0027,4,AE4,FEVER,FEVER,CARDIAC DISORDERS,CARDIAC DISORDERS,MODERATE,2,N,NOT RELATED,NOT APPLICABLE,RECOVERING/RESOLVING,2026-08-10,2026-08-18,45,53,8,N,N,Y,Y,Y,Y,
STUDY001,AE,STUDY001-SUBJ0029,1,AE1,RASH,RASH,GASTROINTESTINAL DISORDERS,GASTROINTESTINAL DISORDERS,MILD,1,N,NOT RELATED,NOT APPLICABLE,RECOVERED/RESOLVED,2026-05-17,2026-07-30,238,312,74,N,N,N,Y,Y,Y,
STUDY001,AE,STUDY001-SUBJ0029,2,AE2,FATIGUE,FATIGUE,CARDIAC DISORDERS,CARDIAC DISORDERS,SEVERE,3,Y,RELATED,DRUG WITHDRAWN,FATAL,2026-03-03,2026-07-02,163,284,121,Y,Y,N,Y,N,Y,
STUDY001,AE,STUDY001-SUBJ0029,3,AE3,VOMITING,VOMITING,GASTROINTESTINAL DISORDERS,GASTROINTESTINAL DISORDERS,MILD,1,N,NOT RELATED,NOT APPLICABLE,RECOVERED/RESOLVED,2026-06-27,2026-08-10,279,323,44,N,N,N,Y,Y,N,
STUDY001,AE,STUDY001-SUBJ0029,4,AE4,DIZZINESS,DIZZINESS,GASTROINTESTINAL DISORDERS,GASTROINTESTINAL DISORDERS,MILD,1,N,NOT RELATED,NOT APPLICABLE,RECOVERED/RESOLVED,2025-12-01,2026-01-22,71,123,52,N,N,N,N,Y,Y,
STUDY001,AE,STUDY001-SUBJ0029,5,AE5,VOMITING,VOMITING,NERVOUS SYSTEM DISORDERS,NERVOUS SYSTEM DISORDERS,MODERATE,2,N,NOT RELATED,DRUG INTERRUPTED,NOT RECOVERED/NOT RESOLVED,2026-02-02,2026-02-24,134,156,22,N,N,N,N,N,Y,
STUDY001,AE,STUDY001-SUBJ0030,1,AE1,NAUSEA,NAUSEA,CARDIAC DISORDERS,CARDIAC DISORDERS,MODERATE,2,N,RELATED,DRUG WITHDRAWN,RECOVERING/RESOLVING,2026-05-18,,52,,,N,N,Y,N,N,Y,
STUDY001,AE,STUDY001-SUBJ0031,1,AE1,VOMITING,VOMITING,NERVOUS SYSTEM DISORDERS,NERVOUS SYSTEM DISORDERS,MODERATE,2,N,RELATED,NOT APPLICABLE,NOT RECOVERED/NOT RESOLVED,2026-07-21,2026-08-01,20,31,11,N,N,Y,N,N,Y,
STUDY001,AE,STUDY001-SUBJ0031,2,AE2,VOMITING,VOMITING,NERVOUS SYSTEM DISORDERS,NERVOUS SYSTEM DISORDERS,SEVERE,3,Y,NOT RELATED,DRUG WITHDRAWN,NOT RECOVERED/NOT RESOLVED,2026-07-14,,13,,,Y,N,N,N,N,Y,
STUDY001,AE,STUDY001-SUBJ0031,3,AE3,NAUSEA,NAUSEA,NERVOUS SYSTEM DISORDERS,NERVOUS SYSTEM DISORDERS,SEVERE,3,Y,NOT RELATED,DOSE REDUCED,RECOVERED/RESOLVED,2026-07-12,2026-07-12,11,11,0,Y,N,N,N,Y,Y,
STUDY001,AE,STUDY001-SUBJ0032,1,AE1,COUGH,COUGH,NERVOUS SYSTEM DISORDERS,NERVOUS SYSTEM DISORDERS,MILD,1,N,NOT RELATED,DRUG WITHDRAWN,NOT RECOVERED/NOT RESOLVED,2026-01-26,2026-08-07,26,219,193,N,N,N,Y,N,Y,
STUDY001,AE,STUDY001-SUBJ0032,2,AE2,FEVER,FEVER,GASTROINTESTINAL DISORDERS,GASTROINTESTINAL DISORDERS,MODERATE,2,N,NOT RELATED,DOSE REDUCED,RECOVERED/RESOLVED,2026-04-14,2026-09-08,104,251,147,N,N,N,N,N,N,
STUDY001,AE,STUDY001-SUBJ0033,1,AE1,COUGH,COUGH,RESPIRATORY DISORDERS,RESPIRATORY DISORDERS,SEVERE,3,Y,NOT RELATED,DRUG WITHDRAWN,RECOVERED/RESOLVED,2026-08-04,2026-08-14,170,180,10,Y,N,Y,Y,Y,N,
STUDY001,AE,STUDY001-SUBJ0033,2,AE2,FATIGUE,FATIGUE,RESPIRATORY DISORDERS,RESPIRATORY DISORDERS,SEVERE,3,Y,NOT RELATED,NOT APPLICABLE,RECOVERING/RESOLVING,2026-08-14,,180,,,N,N,N,N,N,N,
STUDY001,AE,STUDY001-SUBJ0036,1,AE1,FATIGUE,FATIGUE,RESPIRATORY DISORDERS,RESPIRATORY DISORDERS,MILD,1,N,NOT RELATED,DOSE REDUCED,FATAL,2026-04-20,2026-04-27,129,136,7,N,Y,N,Y,Y,Y,
STUDY001,AE,STUDY001-SUBJ0037,1,AE1,PAIN,PAIN,RESPIRATORY DISORDERS,RESPIRATORY DISORDERS,MILD,1,N,RELATED,DRUG INTERRUPTED,RECOVERING/RESOLVING,2026-07-26,,13,,,N,N,Y,Y,N,N,
STUDY001,AE,STUDY001-SUBJ0037,2,AE2,FEVER,FEVER,RESPIRATORY DISORDERS,RESPIRATORY DISORDERS,MILD,1,N,NOT RELATED,NOT APPLICABLE,RECOVERED/RESOLVED,2026-08-07,,25,,,N,N,Y,Y,Y,Y,
STUDY001,AE,STUDY001-SUBJ0038,1,AE1,RASH,RASH,NERVOUS SYSTEM DISORDERS,NERVOUS SYSTEM DISORDERS,MILD,1,N,NOT RELATED,DRUG INTERRUPTED,FATAL,2026-07-05,,72,,,N,Y,Y,Y,N,Y,
STUDY001,AE,STUDY001-SUBJ0038,2,AE2,HEADACHE,HEADACHE,CARDIAC DISORDERS,CARDIAC DISORDERS,MODERATE,2,N,RELATED,DOSE NOT CHANGED,NOT RECOVERED/NOT RESOLVED,2026-07-23,2026-08-20,90,118,28,Y,N,Y,Y,N,Y,
STUDY001,AE,STUDY001-SUBJ0038,3,AE3,DIARRHEA,DIARRHEA,RESPIRATORY DISORDERS,RESPIRATORY DISORDERS,SEVERE,3,Y,NOT RELATED,DOSE NOT CHANGED,RECOVERED/RESOLVED,2026-08-04,,102,,,N,N,N,Y,Y,N,
STUDY001,AE,STUDY001-SUBJ0039,1,AE1,DIARRHEA,DIARRHEA,GASTROINTESTINAL DISORDERS,GASTROINTESTINAL DISORDERS,MILD,1,N,NOT RELATED,DOSE NOT CHANGED,RECOVERED/RESOLVED,2026-08-06,,67,,,Y,N,N,Y,Y,N,
STUDY001,AE,STUDY001-SUBJ0039,2,AE2,HEADACHE,HEADACHE,NERVOUS SYSTEM DISORDERS,NERVOUS SYSTEM DISORDERS,MODERATE,2,N,RELATED,DRUG WITHDRAWN,RECOVERING/RESOLVING,2026-08-09,2026-08-29,70,90,20,N,N,Y,Y,Y,N,
STUDY001,AE,STUDY001-SUBJ0041,1,AE1,DIZZINESS,DIZZINESS,RESPIRATORY DISORDERS,RESPIRATORY DISORDERS,MODERATE,2,N,RELATED,DRUG INTERRUPTED,RECOVERED/RESOLVED,2026-07-31,2026-08-06,93,99,6,N,N,N,Y,N,Y,
STUDY001,AE,STUDY001-SUBJ0041,2,AE2,INSOMNIA,INSOMNIA,NERVOUS SYSTEM DISORDERS,NERVOUS SYSTEM DISORDERS,MILD,1,N,RELATED,DRUG INTERRUPTED,NOT RECOVERED/NOT RESOLVED,2026-08-08,2026-08-08,101,101,0,Y,N,N,N,N,N,
STUDY001,AE,STUDY001-SUBJ0042,1,AE1,DIZZINESS,DIZZINESS,NERVOUS SYSTEM DISORDERS,NERVOUS SYSTEM DISORDERS,SEVERE,3,Y,NOT RELATED,NOT APPLICABLE,NOT RECOVERED/NOT RESOLVED,2026-04-20,2026-08-10,191,303,112,Y,N,N,N,N,Y,
STUDY001,AE,STUDY001-SUBJ0042,2,AE2,INSOMNIA,INSOMNIA,NERVOUS SYSTEM DISORDERS,NERVOUS SYSTEM DISORDERS,MODERATE,2,N,RELATED,NOT APPLICABLE,NOT RECOVERED/NOT RESOLVED,2025-12-07,2026-06-06,57,238,181,Y,N,N,Y,N,Y,
STUDY001,AE,STUDY001-SUBJ0042,3,AE3,PAIN,PAIN,CARDIAC DISORDERS,CARDIAC DISORDERS,SEVERE,3,Y,RELATED,NOT APPLICABLE,NOT RECOVERED/NOT RESOLVED,2025-11-01,2026-01-25,21,106,85,Y,N,Y,Y,Y,N,
STUDY001,AE,STUDY001-SUBJ0042,4,AE4,RASH,RASH,GASTROINTESTINAL DISORDERS,GASTROINTESTINAL DISORDERS,SEVERE,3,Y,NOT RELATED,DOSE REDUCED,RECOVERED/RESOLVED,2026-02-21,2026-06-05,133,237,104,Y,N,Y,Y,N,Y,
STUDY001,AE,STUDY001-SUBJ0042,5,AE5,NAUSEA,NAUSEA,NERVOUS SYSTEM DISORDERS,NERVOUS SYSTEM DISORDERS,MILD,1,N,NOT RELATED,DOSE NOT CHANGED,RECOVERED/RESOLVED,2026-03-22,2026-04-14,162,185,23,N,N,Y,N,Y,Y,
STUDY001,AE,STUDY001-SUBJ0043,1,AE1,HEADACHE,HEADACHE,NERVOUS SYSTEM DISORDERS,NERVOUS SYSTEM DISORDERS,SEVERE,3,Y,RELATED,NOT APPLICABLE,NOT RECOVERED/NOT RESOLVED,2026-05-06,,32,,,Y,N,N,Y,Y,N,
STUDY001,AE,STUDY001-SUBJ0043,2,AE2,FATIGUE,FATIGUE,GASTROINTESTINAL DISORDERS,GASTROINTESTINAL DISORDERS,MILD,1,N,NOT RELATED,DOSE NOT CHANGED,RECOVERED/RESOLVED,2026-08-15,2026-08-28,133,146,13,Y,N,Y,N,N,N,
STUDY001,AE,STUDY001-SUBJ0043,3,AE3,DIZZINESS,DIZZINESS,NERVOUS SYSTEM DISORDERS,NERVOUS SYSTEM DISORDERS,MILD,1,N,RELATED,DOSE NOT CHANGED,NOT RECOVERED/NOT RESOLVED,2026-04-29,2026-08-03,25,121,96,N,N,N,N,N,N,
STUDY001,AE,STUDY001-SUBJ0044,1,AE1,VOMITING,VOMITING,RESPIRATORY DISORDERS,RESPIRATORY DISORDERS,MILD,1,N,RELATED,DOSE REDUCED,RECOVERED/RESOLVED,2026-08-12,,28,,,Y,N,N,N,N,N,
STUDY001,AE,STUDY001-SUBJ0044,2,AE2,INSOMNIA,INSOMNIA,NERVOUS SYSTEM DISORDERS,NERVOUS SYSTEM DISORDERS,MILD,1,N,RELATED,DRUG WITHDRAWN,RECOVERED/RESOLVED,2026-08-06,2026-08-08,22,24,2,N,N,N,Y,Y,Y,
STUDY001,AE,STUDY001-SUBJ0045,1,AE1,FATIGUE,FATIGUE,RESPIRATORY DISORDERS,RESPIRATORY DISORDERS,MODERATE,2,N,NOT RELATED,DRUG INTERRUPTED,RECOVERED/RESOLVED,2026-05-22,2026-06-29,28,66,38,Y,N,N,N,Y,N,
STUDY001,AE,STUDY001-SUBJ0045,2,AE2,DIARRHEA,DIARRHEA,RESPIRATORY DISORDERS,RESPIRATORY DISORDERS,MODERATE,2,N,NOT RELATED,DRUG WITHDRAWN,NOT RECOVERED/NOT RESOLVED,2026-05-03,2026-05-19,9,25,16,Y,N,N,N,N,Y,
STUDY001,AE,STUDY001-SUBJ0045,3,AE3,HEADACHE,HEADACHE,CARDIAC DISORDERS,CARDIAC DISORDERS,MILD,1,N,NOT RELATED,DRUG INTERRUPTED,NOT RECOVERED/NOT RESOLVED,2026-07-01,2026-07-11,68,78,10,Y,N,N,N,N,N,
STUDY001,AE,STUDY001-SUBJ0045,4,AE4,DIZZINESS,DIZZINESS,GASTROINTESTINAL DISORDERS,GASTROINTESTINAL DISORDERS,MODERATE,2,N,RELATED,NOT APPLICABLE,RECOVERING/RESOLVING,2026-05-11,2026-05-11,17,17,0,Y,N,N,Y,Y,Y,
STUDY001,AE,STUDY001-SUBJ0046,1,AE1,RASH,RASH,NERVOUS SYSTEM DISORDERS,NERVOUS SYSTEM DISORDERS,MILD,1,N,NOT RELATED,DOSE NOT CHANGED,FATAL,2026-05-25,2026-08-04,113,184,71,N,Y,N,Y,N,Y,
STUDY001,AE,STUDY001-SUBJ0047,1,AE1,RASH,RASH,CARDIAC DISORDERS,CARDIAC DISORDERS,MILD,1,N,RELATED,DOSE NOT CHANGED,NOT RECOVERED/NOT RESOLVED,2026-05-02,2026-06-27,34,90,56,N,N,Y,Y,Y,N,
STUDY001,AE,STUDY001-SUBJ0047,2,AE2,COUGH,COUGH,NERVOUS SYSTEM DISORDERS,NERVOUS SYSTEM DISORDERS,MILD,1,N,RELATED,DOSE NOT CHANGED,RECOVERED/RESOLVED,2026-04-18,2026-06-12,20,75,55,N,N,N,N,Y,Y,
STUDY001,AE,STUDY001-SUBJ0047,3,AE3,DIZZINESS,DIZZINESS,CARDIAC DISORDERS,CARDIAC DISORDERS,MILD,1,N,RELATED,NOT APPLICABLE,RECOVERING/RESOLVING,2026-07-21,2026-07-28,114,121,7,Y,N,Y,N,Y,N,
STUDY001,AE,STUDY001-SUBJ0047,4,AE4,RASH,RASH,NERVOUS SYSTEM DISORDERS,NERVOUS SYSTEM DISORDERS,MILD,1,N,RELATED,DRUG INTERRUPTED,RECOVERING/RESOLVING,2026-06-19,2026-07-02,82,95,13,Y,N,N,N,N,Y,
STUDY001,AE,STUDY001-SUBJ0047,5,AE5,DIARRHEA,DIARRHEA,GASTROINTESTINAL DISORDERS,GASTROINTESTINAL DISORDERS,MILD,1,N,NOT RELATED,DOSE REDUCED,RECOVERING/RESOLVING,2026-07-29,2026-08-06,122,130,8,N,N,N,Y,Y,Y,
STUDY001,AE,STUDY001-SUBJ0048,1,AE1,VOMITING,VOMITING,RESPIRATORY DISORDERS,RESPIRATORY DISORDERS,MILD,1,N,NOT RELATED,DRUG INTERRUPTED,NOT RECOVERED/NOT RESOLVED,2026-06-15,2026-07-09,3,27,24,N,N,Y,Y,Y,Y,
STUDY001,AE,STUDY001-SUBJ0049,1,AE1,DIZZINESS,DIZZINESS,RESPIRATORY DISORDERS,RESPIRATORY DISORDERS,MILD,1,N,NOT RELATED,NOT APPLICABLE,NOT RECOVERED/NOT RESOLVED,2026-08-09,2026-08-22,96,109,13,Y,N,Y,Y,Y,Y,
STUDY001,AE,STUDY001-SUBJ0050,1,AE1,COUGH,COUGH,RESPIRATORY DISORDERS,RESPIRATORY DISORDERS,MILD,1,N,NOT RELATED,DOSE NOT CHANGED,RECOVERED/RESOLVED,2026-08-30,2026-08-30,34,34,0,N,N,N,Y,Y,N,
STUDY001,AE,STUDY001-SUBJ0051,1,AE1,DIZZINESS,DIZZINESS,RESPIRATORY DISORDERS,RESPIRATORY DISORDERS,MILD,1,N,NOT RELATED,DOSE REDUCED,NOT RECOVERED/NOT RESOLVED,2026-03-30,,8,,,Y,N,N,Y,Y,Y,
STUDY001,AE,STUDY001-SUBJ0052,1,AE1,VOMITING,VOMITING,GASTROINTESTINAL DISORDERS,GASTROINTESTINAL DISORDERS,MILD,1,N,NOT RELATED,DRUG INTERRUPTED,RECOVERING/RESOLVING,2026-03-13,,30,,,Y,N,Y,Y,N,Y,
STUDY001,AE,STUDY001-SUBJ0052,2,AE2,DIZZINESS,DIZZINESS,RESPIRATORY DISORDERS,RESPIRATORY DISORDERS,SEVERE,3,Y,RELATED,DRUG INTERRUPTED,RECOVERED/RESOLVED,2026-05-06,2026-08-06,84,176,92,Y,N,N,N,Y,N,
STUDY001,AE,STUDY001-SUBJ0052,3,AE3,FEVER,FEVER,GASTROINTESTINAL DISORDERS,GASTROINTESTINAL DISORDERS,MODERATE,2,N,RELATED,NOT APPLICABLE,NOT RECOVERED/NOT RESOLVED,2026-02-25,2026-04-19,14,67,53,Y,N,N,N,Y,N,
STUDY001,AE,STUDY001-SUBJ0053,1,AE1,HEADACHE,HEADACHE,RESPIRATORY DISORDERS,RESPIRATORY DISORDERS,SEVERE,3,Y,NOT RELATED,DRUG INTERRUPTED,RECOVERING/RESOLVING,2026-03-18,,25,,,Y,N,N,Y,Y,N,
STUDY001,AE,STUDY001-SUBJ0053,2,AE2,PAIN,PAIN,GASTROINTESTINAL DISORDERS,GASTROINTESTINAL DISORDERS,MODERATE,2,N,NOT RELATED,DOSE NOT CHANGED,RECOVERING/RESOLVING,2026-07-11,2026-08-05,140,165,25,N,N,Y,Y,N,Y,
STUDY001,AE,STUDY001-SUBJ0053,3,AE3,NAUSEA,NAUSEA,CARDIAC DISORDERS,CARDIAC DISORDERS,MODERATE,2,N,NOT RELATED,DRUG INTERRUPTED,RECOVERING/RESOLVING,2026-04-25,2026-06-07,63,106,43,N,N,N,Y,N,N,
STUDY001,AE,STUDY001-SUBJ0053,4,AE4,VOMITING,VOMITING,RESPIRATORY DISORDERS,RESPIRATORY DISORDERS,MODERATE,2,N,RELATED,DOSE REDUCED,FATAL,2026-07-15,2026-08-02,144,162,18,N,Y,N,Y,N,Y,
STUDY001,AE,STUDY001-SUBJ0054,1,AE1,DIZZINESS,DIZZINESS,NERVOUS SYSTEM DISORDERS,NERVOUS SYSTEM DISORDERS,SEVERE,3,Y,RELATED,DOSE NOT CHANGED,FATAL,2026-07-11,2026-07-21,26,36,10,Y,Y,N,Y,Y,N,
STUDY001,AE,STUDY001-SUBJ0054,2,AE2,PAIN,PAIN,RESPIRATORY DISORDERS,RESPIRATORY DISORDERS,MILD,1,N,NOT RELATED,DRUG WITHDRAWN,RECOVERED/RESOLVED,2026-08-19,2026-08-22,65,68,3,Y,N,Y,N,N,N,
STUDY001,AE,STUDY001-SUBJ0054,3,AE3,DIARRHEA,DIARRHEA,CARDIAC DISORDERS,CARDIAC DISORDERS,SEVERE,3,Y,NOT RELATED,DOSE NOT CHANGED,RECOVERING/RESOLVING,2026-06-27,2026-08-12,12,58,46,Y,N,N,Y,N,Y,
STUDY001,AE,STUDY001-SUBJ0054,4,AE4,VOMITING,VOMITING,NERVOUS SYSTEM DISORDERS,NERVOUS SYSTEM DISORDERS,SEVERE,3,Y,NOT RELATED,DRUG WITHDRAWN,RECOVERED/RESOLVED,2026-07-01,2026-08-16,16,62,46,Y,N,N,Y,N,N,
STUDY001,AE,STUDY001-SUBJ0054,5,AE5,PAIN,PAIN,NERVOUS SYSTEM DISORDERS,NERVOUS SYSTEM DISORDERS,SEVERE,3,Y,RELATED,NOT APPLICABLE,RECOVERED/RESOLVED,2026-07-27,2026-08-19,42,65,23,N,N,Y,N,Y,N,
STUDY001,AE,STUDY001-SUBJ0055,1,AE1,VOMITING,VOMITING,GASTROINTESTINAL DISORDERS,GASTROINTESTINAL DISORDERS,SEVERE,3,Y,NOT RELATED,DOSE NOT CHANGED,RECOVERED/RESOLVED,2026-07-14,,132,,,Y,N,N,N,N,Y,
STUDY001,AE,STUDY001-SUBJ0055,2,AE2,HEADACHE,HEADACHE,NERVOUS SYSTEM DISORDERS,NERVOUS SYSTEM DISORDERS,SEVERE,3,Y,RELATED,DRUG INTERRUPTED,NOT RECOVERED/NOT RESOLVED,2026-06-23,2026-08-02,111,151,40,Y,N,N,N,Y,N,
STUDY001,AE,STUDY001-SUBJ0055,3,AE3,PAIN,PAIN,NERVOUS SYSTEM DISORDERS,NERVOUS SYSTEM DISORDERS,MILD,1,N,NOT RELATED,DRUG WITHDRAWN,RECOVERING/RESOLVING,2026-05-16,2026-08-03,73,152,79,Y,N,Y,N,Y,N,
STUDY001,AE,STUDY001-SUBJ0055,4,AE4,DIARRHEA,DIARRHEA,RESPIRATORY DISORDERS,RESPIRATORY DISORDERS,MILD,1,N,NOT RELATED,DOSE REDUCED,NOT RECOVERED/NOT RESOLVED,2026-06-23,2026-07-18,111,136,25,N,N,N,N,N,N,
STUDY001,AE,STUDY001-SUBJ0055,5,AE5,PAIN,PAIN,CARDIAC DISORDERS,CARDIAC DISORDERS,SEVERE,3,Y,NOT RELATED,NOT APPLICABLE,RECOVERED/RESOLVED,2026-07-23,2026-08-12,141,161,20,Y,N,N,Y,N,N,
STUDY001,AE,STUDY001-SUBJ0056,1,AE1,FEVER,FEVER,RESPIRATORY DISORDERS,RESPIRATORY DISORDERS,SEVERE,3,Y,RELATED,DRUG WITHDRAWN,RECOVERING/RESOLVING,2026-06-21,2026-07-08,14,31,17,Y,N,N,Y,Y,Y,
STUDY001,AE,STUDY001-SUBJ0057,1,AE1,VOMITING,VOMITING,GASTROINTESTINAL DISORDERS,GASTROINTESTINAL DISORDERS,MODERATE,2,N,NOT RELATED,DRUG WITHDRAWN,RECOVERING/RESOLVING,2026-08-30,2026-09-05,48,54,6,N,N,Y,N,N,Y,
STUDY001,AE,STUDY001-SUBJ0058,1,AE1,PAIN,PAIN,RESPIRATORY DISORDERS,RESPIRATORY DISORDERS,MILD,1,N,NOT RELATED,DOSE NOT CHANGED,RECOVERED/RESOLVED,2026-06-13,2026-08-14,152,214,62,N,N,N,Y,Y,Y,
STUDY001,AE,STUDY001-SUBJ0058,2,AE2,FEVER,FEVER,GASTROINTESTINAL DISORDERS,GASTROINTESTINAL DISORDERS,MODERATE,2,N,RELATED,DRUG WITHDRAWN,RECOVERING/RESOLVING,2026-07-22,2026-08-19,191,219,28,Y,N,Y,Y,Y,N,
STUDY001,AE,STUDY001-SUBJ0058,3,AE3,COUGH,COUGH,NERVOUS SYSTEM DISORDERS,NERVOUS SYSTEM DISORDERS,MILD,1,N,RELATED,DOSE NOT CHANGED,FATAL,2026-03-27,2026-04-24,74,102,28,N,Y,Y,N,N,N,
STUDY001,AE,STUDY001-SUBJ0058,4,AE4,INSOMNIA,INSOMNIA,GASTROINTESTINAL DISORDERS,GASTROINTESTINAL DISORDERS,SEVERE,3,Y,NOT RELATED,DOSE NOT CHANGED,FATAL,2026-02-18,,37,,,N,Y,N,N,N,Y,
STUDY001,AE,STUDY001-SUBJ0059,1,AE1,FATIGUE,FATIGUE,NERVOUS SYSTEM DISORDERS,NERVOUS SYSTEM DISORDERS,MILD,1,N,RELATED,DRUG INTERRUPTED,RECOVERING/RESOLVING,2026-05-11,2026-05-11,51,51,0,Y,N,N,N,Y,N,
STUDY001,AE,STUDY001-SUBJ0059,2,AE2,DIARRHEA,DIARRHEA,RESPIRATORY DISORDERS,RESPIRATORY DISORDERS,SEVERE,3,Y,NOT RELATED,DOSE NOT CHANGED,RECOVERED/RESOLVED,2026-08-01,2026-08-06,133,138,5,N,N,Y,Y,N,N,
STUDY001,AE,STUDY001-SUBJ0059,3,AE3,PAIN,PAIN,NERVOUS SYSTEM DISORDERS,NERVOUS SYSTEM DISORDERS,SEVERE,3,Y,RELATED,DOSE REDUCED,RECOVERING/RESOLVING,2026-06-01,,72,,,N,N,N,N,Y,Y,
STUDY001,AE,STUDY001-SUBJ0059,4,AE4,RASH,RASH,GASTROINTESTINAL DISORDERS,GASTROINTESTINAL DISORDERS,SEVERE,3,Y,RELATED,DOSE NOT CHANGED,NOT RECOVERED/NOT RESOLVED,2026-05-04,2026-07-16,44,117,73,Y,N,N,N,Y,N,
STUDY001,AE,STUDY001-SUBJ0060,1,AE1,FEVER,FEVER,RESPIRATORY DISORDERS,RESPIRATORY DISORDERS,MILD,1,N,NOT RELATED,DOSE REDUCED,RECOVERING/RESOLVING,2026-06-20,2026-07-18,36,64,28,Y,N,Y,N,N,N,
STUDY001,AE,STUDY001-SUBJ0060,2,AE2,NAUSEA,NAUSEA,GASTROINTESTINAL DISORDERS,GASTROINTESTINAL DISORDERS,SEVERE,3,Y,NOT RELATED,DOSE REDUCED,FATAL,2026-05-28,,13,,,Y,Y,N,N,Y,Y,
STUDY001,AE,STUDY001-SUBJ0060,3,AE3,VOMITING,VOMITING,CARDIAC DISORDERS,CARDIAC DISORDERS,SEVERE,3,Y,NOT RELATED,DRUG WITHDRAWN,NOT RECOVERED/NOT RESOLVED,2026-05-19,,4,,,Y,N,Y,N,Y,N,
STUDY001,AE,STUDY001-SUBJ0060,4,AE4,FATIGUE,FATIGUE,NERVOUS SYSTEM DISORDERS,NERVOUS SYSTEM DISORDERS,MODERATE,2,N,NOT RELATED,NOT APPLICABLE,RECOVERED/RESOLVED,2026-07-18,2026-08-12,64,89,25,N,N,N,Y,Y,N,
STUDY001,AE,STUDY001-SUBJ0060,5,AE5,FATIGUE,FATIGUE,GASTROINTESTINAL DISORDERS,GASTROINTESTINAL DISORDERS,SEVERE,3,Y,RELATED,DOSE NOT CHANGED,NOT RECOVERED/NOT RESOLVED,2026-05-24,2026-06-25,9,41,32,Y,N,N,Y,N,Y,
STUDY001,AE,STUDY001-SUBJ0061,1,AE1,COUGH,COUGH,CARDIAC DISORDERS,CARDIAC DISORDERS,MODERATE,2,N,NOT RELATED,DRUG WITHDRAWN,NOT RECOVERED/NOT RESOLVED,2026-08-25,2026-08-28,35,38,3,Y,N,Y,Y,Y,Y,
STUDY001,AE,STUDY001-SUBJ0061,2,AE2,FEVER,FEVER,RESPIRATORY DISORDERS,RESPIRATORY DISORDERS,MILD,1,N,NOT RELATED,DOSE REDUCED,FATAL,2026-08-07,,17,,,N,Y,N,Y,Y,N,
STUDY001,AE,STUDY001-SUBJ0061,3,AE3,HEADACHE,HEADACHE,RESPIRATORY DISORDERS,RESPIRATORY DISORDERS,SEVERE,3,Y,RELATED,NOT APPLICABLE,FATAL,2026-07-22,,1,,,N,Y,Y,Y,N,Y,
STUDY001,AE,STUDY001-SUBJ0062,1,AE1,PAIN,PAIN,NERVOUS SYSTEM DISORDERS,NERVOUS SYSTEM DISORDERS,MILD,1,N,NOT RELATED,DOSE REDUCED,RECOVERED/RESOLVED,2026-06-28,2026-08-05,114,152,38,Y,N,Y,N,Y,Y,
STUDY001,AE,STUDY001-SUBJ0062,2,AE2,VOMITING,VOMITING,RESPIRATORY DISORDERS,RESPIRATORY DISORDERS,MODERATE,2,N,NOT RELATED,DOSE NOT CHANGED,RECOVERING/RESOLVING,2026-07-12,2026-07-26,128,142,14,N,N,N,N,N,Y,
STUDY001,AE,STUDY001-SUBJ0063,1,AE1,NAUSEA,NAUSEA,CARDIAC DISORDERS,CARDIAC DISORDERS,MILD,1,N,RELATED,DRUG INTERRUPTED,NOT RECOVERED/NOT RESOLVED,2026-05-28,2026-06-21,161,185,24,N,N,N,N,N,Y,
STUDY001,AE,STUDY001-SUBJ0063,2,AE2,NAUSEA,NAUSEA,CARDIAC DISORDERS,CARDIAC DISORDERS,MODERATE,2,N,RELATED,DOSE REDUCED,NOT RECOVERED/NOT RESOLVED,2026-03-03,2026-07-23,75,217,142,N,N,Y,Y,N,Y,
STUDY001,AE,STUDY001-SUBJ0064,1,AE1,NAUSEA,NAUSEA,RESPIRATORY DISORDERS,RESPIRATORY DISORDERS,SEVERE,3,Y,NOT RELATED,DRUG INTERRUPTED,RECOVERED/RESOLVED,2026-05-23,2026-07-13,102,153,51,N,N,Y,N,N,Y,
STUDY001,AE,STUDY001-SUBJ0064,2,AE2,HEADACHE,HEADACHE,RESPIRATORY DISORDERS,RESPIRATORY DISORDERS,SEVERE,3,Y,RELATED,DRUG INTERRUPTED,NOT RECOVERED/NOT RESOLVED,2026-03-28,2026-09-02,46,204,158,Y,N,Y,Y,Y,Y,
STUDY001,AE,STUDY001-SUBJ0064,3,AE3,PAIN,PAIN,CARDIAC DISORDERS,CARDIAC DISORDERS,SEVERE,3,Y,NOT RELATED,NOT APPLICABLE,RECOVERED/RESOLVED,2026-02-11,2026-08-01,1,172,171,N,N,Y,N,N,N,
STUDY001,AE,STUDY001-SUBJ0064,4,AE4,FATIGUE,FATIGUE,NERVOUS SYSTEM DISORDERS,NERVOUS SYSTEM DISORDERS,MILD,1,N,NOT RELATED,DOSE NOT CHANGED,FATAL,2026-02-28,,18,,,N,Y,N,N,N,N,
STUDY001,AE,STUDY001-SUBJ0065,1,AE1,FEVER,FEVER,CARDIAC DISORDERS,CARDIAC DISORDERS,MILD,1,N,RELATED,NOT APPLICABLE,NOT RECOVERED/NOT RESOLVED,2025-12-08,2026-01-22,65,110,45,N,N,Y,Y,N,Y,
STUDY001,AE,STUDY001-SUBJ0065,2,AE2,FEVER,FEVER,NERVOUS SYSTEM DISORDERS,NERVOUS SYSTEM DISORDERS,MODERATE,2,N,NOT RELATED,DOSE NOT CHANGED,FATAL,2026-03-02,,149,,,Y,Y,Y,N,Y,Y,
STUDY001,AE,STUDY001-SUBJ0065,3,AE3,HEADACHE,HEADACHE,RESPIRATORY DISORDERS,RESPIRATORY DISORDERS,MILD,1,N,NOT RELATED,DOSE NOT CHANGED,FATAL,2026-07-23,,292,,,Y,Y,Y,N,N,N,
STUDY001,AE,STUDY001-SUBJ0066,1,AE1,HEADACHE,HEADACHE,NERVOUS SYSTEM DISORDERS,NERVOUS SYSTEM DISORDERS,MILD,1,N,RELATED,DRUG INTERRUPTED,RECOVERING/RESOLVING,2026-08-04,2026-08-16,33,45,12,N,N,N,Y,N,Y,
STUDY001,AE,STUDY001-SUBJ0067,1,AE1,NAUSEA,NAUSEA,GASTROINTESTINAL DISORDERS,GASTROINTESTINAL DISORDERS,MILD,1,N,RELATED,DRUG INTERRUPTED,RECOVERING/RESOLVING,2026-07-16,2026-07-16,158,158,0,Y,N,N,N,Y,Y,
STUDY001,AE,STUDY001-SUBJ0067,2,AE2,DIARRHEA,DIARRHEA,RESPIRATORY DISORDERS,RESPIRATORY DISORDERS,MILD,1,N,NOT RELATED,DRUG INTERRUPTED,RECOVERING/RESOLVING,2026-04-19,,70,,,N,N,N,Y,N,Y,
STUDY001,AE,STUDY001-SUBJ0067,3,AE3,FATIGUE,FATIGUE,GASTROINTESTINAL DISORDERS,GASTROINTESTINAL DISORDERS,SEVERE,3,Y,NOT RELATED,NOT APPLICABLE,RECOVERING/RESOLVING,2026-02-25,,17,,,Y,N,N,N,Y,Y,
STUDY001,AE,STUDY001-SUBJ0068,1,AE1,DIARRHEA,DIARRHEA,CARDIAC DISORDERS,CARDIAC DISORDERS,MODERATE,2,N,RELATED,DRUG INTERRUPTED,RECOVERING/RESOLVING,2026-08-02,2026-08-13,116,127,11,N,N,N,N,Y,N,
STUDY001,AE,STUDY001-SUBJ0068,2,AE2,COUGH,COUGH,CARDIAC DISORDERS,CARDIAC DISORDERS,MILD,1,N,RELATED,DRUG INTERRUPTED,RECOVERING/RESOLVING,2026-04-17,2026-08-05,9,119,110,N,N,N,N,Y,N,
STUDY001,AE,STUDY001-SUBJ0068,3,AE3,RASH,RASH,GASTROINTESTINAL DISORDERS,GASTROINTESTINAL DISORDERS,MODERATE,2,N,RELATED,NOT APPLICABLE,RECOVERING/RESOLVING,2026-04-21,2026-05-13,13,35,22,N,N,N,Y,N,N,
STUDY001,AE,STUDY001-SUBJ0068,4,AE4,DIZZINESS,DIZZINESS,CARDIAC DISORDERS,CARDIAC DISORDERS,SEVERE,3,Y,RELATED,DRUG WITHDRAWN,FATAL,2026-07-15,2026-07-16,98,99,1,N,Y,N,N,Y,N,
STUDY001,AE,STUDY001-SUBJ0068,5,AE5,COUGH,COUGH,GASTROINTESTINAL DISORDERS,GASTROINTESTINAL DISORDERS,MILD,1,N,RELATED,DRUG WITHDRAWN,FATAL,2026-04-29,2026-06-04,21,57,36,N,Y,Y,N,N,Y,
STUDY001,AE,STUDY001-SUBJ0069,1,AE1,HEADACHE,HEADACHE,NERVOUS SYSTEM DISORDERS,NERVOUS SYSTEM DISORDERS,MILD,1,N,NOT RELATED,DOSE REDUCED,RECOVERING/RESOLVING,2026-08-31,2026-08-31,172,172,0,Y,N,Y,Y,Y,Y,
STUDY001,AE,STUDY001-SUBJ0069,2,AE2,HEADACHE,HEADACHE,GASTROINTESTINAL DISORDERS,GASTROINTESTINAL DISORDERS,MILD,1,N,RELATED,DOSE NOT CHANGED,RECOVERING/RESOLVING,2026-08-19,2026-08-25,160,166,6,Y,N,N,Y,Y,N,
STUDY001,AE,STUDY001-SUBJ0070,1,AE1,RASH,RASH,NERVOUS SYSTEM DISORDERS,NERVOUS SYSTEM DISORDERS,MILD,1,N,NOT RELATED,DOSE REDUCED,RECOVERED/RESOLVED,2026-04-05,2026-05-27,72,124,52,Y,N,Y,N,N,Y,
STUDY001,AE,STUDY001-SUBJ0071,1,AE1,DIARRHEA,DIARRHEA,GASTROINTESTINAL DISORDERS,GASTROINTESTINAL DISORDERS,MILD,1,N,NOT RELATED,DRUG INTERRUPTED,NOT RECOVERED/NOT RESOLVED,2026-05-01,2026-07-05,59,124,65,Y,N,Y,Y,Y,N,
STUDY001,AE,STUDY001-SUBJ0072,1,AE1,DIZZINESS,DIZZINESS,CARDIAC DISORDERS,CARDIAC DISORDERS,MILD,1,N,NOT RELATED,DOSE NOT CHANGED,FATAL,2026-06-16,2026-07-01,46,61,15,N,Y,N,Y,Y,Y,
STUDY001,AE,STUDY001-SUBJ0074,1,AE1,HEADACHE,HEADACHE,NERVOUS SYSTEM DISORDERS,NERVOUS SYSTEM DISORDERS,MILD,1,N,NOT RELATED,DOSE REDUCED,NOT RECOVERED/NOT RESOLVED,2026-08-18,,65,,,N,N,N,N,Y,N,
STUDY001,AE,STUDY001-SUBJ0075,1,AE1,FATIGUE,FATIGUE,CARDIAC DISORDERS,CARDIAC DISORDERS,MODERATE,2,N,RELATED,NOT APPLICABLE,NOT RECOVERED/NOT RESOLVED,2026-08-08,2026-08-08,76,76,0,N,N,N,Y,N,Y,
STUDY001,AE,STUDY001-SUBJ0075,2,AE2,DIZZINESS,DIZZINESS,NERVOUS SYSTEM DISORDERS,NERVOUS SYSTEM DISORDERS,MILD,1,N,NOT RELATED,DOSE REDUCED,FATAL,2026-06-06,2026-08-04,13,72,59,N,Y,Y,Y,N,Y,
STUDY001,AE,STUDY001-SUBJ0075,3,AE3,FEVER,FEVER,CARDIAC DISORDERS,CARDIAC DISORDERS,SEVERE,3,Y,NOT RELATED,DRUG WITHDRAWN,RECOVERING/RESOLVING,2026-07-17,2026-08-13,54,81,27,Y,N,Y,Y,N,N,
STUDY001,AE,STUDY001-SUBJ0075,4,AE4,NAUSEA,NAUSEA,RESPIRATORY DISORDERS,RESPIRATORY DISORDERS,MILD,1,N,RELATED,NOT APPLICABLE,RECOVERED/RESOLVED,2026-07-06,2026-07-21,43,58,15,N,N,N,N,Y,N,
STUDY001,AE,STUDY001-SUBJ0075,5,AE5,COUGH,COUGH,NERVOUS SYSTEM DISORDERS,NERVOUS SYSTEM DISORDERS,SEVERE,3,Y,RELATED,NOT APPLICABLE,NOT RECOVERED/NOT RESOLVED,2026-06-15,2026-07-18,22,55,33,Y,N,N,Y,N,N,
STUDY001,AE,STUDY001-SUBJ0076,1,AE1,RASH,RASH,GASTROINTESTINAL DISORDERS,GASTROINTESTINAL DISORDERS,MODERATE,2,N,RELATED,DOSE NOT CHANGED,RECOVERING/RESOLVING,2026-08-07,2026-08-27,36,56,20,N,N,Y,N,Y,Y,
STUDY001,AE,STUDY001-SUBJ0078,1,AE1,HEADACHE,HEADACHE,GASTROINTESTINAL DISORDERS,GASTROINTESTINAL DISORDERS,MILD,1,N,RELATED,DOSE NOT CHANGED,RECOVERING/RESOLVING,2026-01-26,,79,,,N,N,N,N,N,Y,
STUDY001,AE,STUDY001-SUBJ0078,2,AE2,COUGH,COUGH,CARDIAC DISORDERS,CARDIAC DISORDERS,SEVERE,3,Y,NOT RELATED,DRUG WITHDRAWN,FATAL,2026-04-30,,173,,,Y,Y,N,N,Y,N,
STUDY001,AE,STUDY001-SUBJ0078,3,AE3,FATIGUE,FATIGUE,GASTROINTESTINAL DISORDERS,GASTROINTESTINAL DISORDERS,SEVERE,3,Y,RELATED,DRUG WITHDRAWN,FATAL,2026-02-10,2026-07-18,94,252,158,Y,Y,Y,N,Y,Y,
STUDY001,AE,STUDY001-SUBJ0079,1,AE1,VOMITING,VOMITING,NERVOUS SYSTEM DISORDERS,NERVOUS SYSTEM DISORDERS,MILD,1,N,NOT RELATED,DRUG WITHDRAWN,NOT RECOVERED/NOT RESOLVED,2026-05-02,2026-08-20,12,122,110,Y,N,N,N,N,N,
STUDY001,AE,STUDY001-SUBJ0079,2,AE2,PAIN,PAIN,CARDIAC DISORDERS,CARDIAC DISORDERS,MODERATE,2,N,RELATED,DRUG INTERRUPTED,RECOVERING/RESOLVING,2026-05-13,2026-07-28,23,99,76,N,N,Y,N,N,Y,
STUDY001,AE,STUDY001-SUBJ0079,3,AE3,PAIN,PAIN,NERVOUS SYSTEM DISORDERS,NERVOUS SYSTEM DISORDERS,MODERATE,2,N,RELATED,DRUG INTERRUPTED,RECOVERED/RESOLVED,2026-08-24,,126,,,N,N,Y,Y,Y,Y,
STUDY001,AE,STUDY001-SUBJ0081,1,AE1,PAIN,PAIN,GASTROINTESTINAL DISORDERS,GASTROINTESTINAL DISORDERS,MILD,1,N,RELATED,DRUG WITHDRAWN,RECOVERING/RESOLVING,2026-06-19,,143,,,N,N,Y,Y,Y,Y,
STUDY001,AE,STUDY001-SUBJ0081,2,AE2,VOMITING,VOMITING,GASTROINTESTINAL DISORDERS,GASTROINTESTINAL DISORDERS,MILD,1,N,RELATED,DRUG WITHDRAWN,FATAL,2026-03-12,2026-09-01,44,217,173,N,Y,N,Y,N,N,
STUDY001,AE,STUDY001-SUBJ0081,3,AE3,INSOMNIA,INSOMNIA,GASTROINTESTINAL DISORDERS,GASTROINTESTINAL DISORDERS,MILD,1,N,NOT RELATED,DOSE NOT CHANGED,RECOVERED/RESOLVED,2026-06-10,,134,,,Y,N,Y,Y,N,Y,
STUDY001,AE,STUDY001-SUBJ0081,4,AE4,NAUSEA,NAUSEA,NERVOUS SYSTEM DISORDERS,NERVOUS SYSTEM DISORDERS,MODERATE,2,N,RELATED,DOSE NOT CHANGED,RECOVERING/RESOLVING,2026-04-18,2026-07-11,81,165,84,Y,N,N,N,N,Y,
STUDY001,AE,STUDY001-SUBJ0081,5,AE5,NAUSEA,NAUSEA,RESPIRATORY DISORDERS,RESPIRATORY DISORDERS,SEVERE,3,Y,RELATED,DRUG WITHDRAWN,NOT RECOVERED/NOT RESOLVED,2026-05-05,2026-07-17,98,171,73,N,N,Y,Y,Y,Y,
STUDY001,AE,STUDY001-SUBJ0083,1,AE1,FEVER,FEVER,GASTROINTESTINAL DISORDERS,GASTROINTESTINAL DISORDERS,SEVERE,3,Y,RELATED,DOSE NOT CHANGED,NOT RECOVERED/NOT RESOLVED,2026-07-01,,65,,,Y,N,N,N,N,Y,
STUDY001,AE,STUDY001-SUBJ0083,2,AE2,DIZZINESS,DIZZINESS,RESPIRATORY DISORDERS,RESPIRATORY DISORDERS,MILD,1,N,RELATED,DRUG INTERRUPTED,RECOVERING/RESOLVING,2026-07-28,2026-08-15,92,110,18,Y,N,Y,Y,N,N,
STUDY001,AE,STUDY001-SUBJ0083,3,AE3,PAIN,PAIN,GASTROINTESTINAL DISORDERS,GASTROINTESTINAL DISORDERS,MILD,1,N,NOT RELATED,DRUG INTERRUPTED,NOT RECOVERED/NOT RESOLVED,2026-06-13,2026-06-27,47,61,14,N,N,N,Y,Y,Y,
STUDY001,AE,STUDY001-SUBJ0085,1,AE1,NAUSEA,NAUSEA,CARDIAC DISORDERS,CARDIAC DISORDERS,MODERATE,2,N,RELATED,DOSE REDUCED,RECOVERED/RESOLVED,2026-04-07,2026-07-24,106,214,108,Y,N,N,N,N,Y,
STUDY001,AE,STUDY001-SUBJ0086,1,AE1,DIARRHEA,DIARRHEA,GASTROINTESTINAL DISORDERS,GASTROINTESTINAL DISORDERS,MILD,1,N,NOT RELATED,DRUG WITHDRAWN,FATAL,2026-08-10,2026-08-12,112,114,2,Y,Y,Y,N,Y,Y,
STUDY001,AE,STUDY001-SUBJ0086,2,AE2,INSOMNIA,INSOMNIA,NERVOUS SYSTEM DISORDERS,NERVOUS SYSTEM DISORDERS,MODERATE,2,N,RELATED,DRUG WITHDRAWN,RECOVERING/RESOLVING,2026-08-10,2026-08-19,112,121,9,N,N,Y,N,N,N,
STUDY001,AE,STUDY001-SUBJ0086,3,AE3,DIZZINESS,DIZZINESS,GASTROINTESTINAL DISORDERS,GASTROINTESTINAL DISORDERS,SEVERE,3,Y,RELATED,NOT APPLICABLE,RECOVERED/RESOLVED,2026-08-26,2026-08-28,128,130,2,N,N,N,N,N,Y,
STUDY001,AE,STUDY001-SUBJ0087,1,AE1,PAIN,PAIN,GASTROINTESTINAL DISORDERS,GASTROINTESTINAL DISORDERS,MILD,1,N,RELATED,NOT APPLICABLE,RECOVERED/RESOLVED,2026-04-01,2026-08-06,141,268,127,N,N,Y,Y,N,N,
STUDY001,AE,STUDY001-SUBJ0089,1,AE1,DIZZINESS,DIZZINESS,NERVOUS SYSTEM DISORDERS,NERVOUS SYSTEM DISORDERS,MODERATE,2,N,NOT RELATED,DOSE NOT CHANGED,NOT RECOVERED/NOT RESOLVED,2026-04-20,2026-05-16,159,185,26,Y,N,Y,N,Y,N,
STUDY001,AE,STUDY001-SUBJ0090,1,AE1,HEADACHE,HEADACHE,NERVOUS SYSTEM DISORDERS,NERVOUS SYSTEM DISORDERS,SEVERE,3,Y,NOT RELATED,DRUG INTERRUPTED,FATAL,2026-07-30,2026-08-05,29,35,6,N,Y,N,Y,N,Y,
STUDY001,AE,STUDY001-SUBJ0090,2,AE2,PAIN,PAIN,RESPIRATORY DISORDERS,RESPIRATORY DISORDERS,MODERATE,2,N,NOT RELATED,DOSE REDUCED,RECOVERING/RESOLVING,2026-07-10,,9,,,Y,N,N,Y,N,Y,
STUDY001,AE,STUDY001-SUBJ0090,3,AE3,INSOMNIA,INSOMNIA,GASTROINTESTINAL DISORDERS,GASTROINTESTINAL DISORDERS,SEVERE,3,Y,NOT RELATED,DRUG INTERRUPTED,RECOVERING/RESOLVING,2026-08-24,2026-08-24,54,54,0,N,N,Y,N,Y,N,
STUDY001,AE,STUDY001-SUBJ0091,1,AE1,COUGH,COUGH,CARDIAC DISORDERS,CARDIAC DISORDERS,MILD,1,N,NOT RELATED,DRUG WITHDRAWN,FATAL,2026-07-06,2026-08-21,53,99,46,Y,Y,Y,Y,Y,Y,
STUDY001,AE,STUDY001-SUBJ0091,2,AE2,PAIN,PAIN,RESPIRATORY DISORDERS,RESPIRATORY DISORDERS,MODERATE,2,N,RELATED,DRUG INTERRUPTED,RECOVERED/RESOLVED,2026-06-30,2026-08-17,47,95,48,Y,N,Y,N,Y,N,
STUDY001,AE,STUDY001-SUBJ0091,3,AE3,PAIN,PAIN,RESPIRATORY DISORDERS,RESPIRATORY DISORDERS,MILD,1,N,RELATED,DOSE REDUCED,RECOVERING/RESOLVING,2026-08-11,,89,,,N,N,Y,N,N,Y,
STUDY001,AE,STUDY001-SUBJ0091,4,AE4,RASH,RASH,GASTROINTESTINAL DISORDERS,GASTROINTESTINAL DISORDERS,MILD,1,N,RELATED,NOT APPLICABLE,NOT RECOVERED/NOT RESOLVED,2026-09-07,2026-09-07,116,116,0,Y,N,Y,Y,Y,Y,
STUDY001,AE,STUDY001-SUBJ0091,5,AE5,VOMITING,VOMITING,CARDIAC DISORDERS,CARDIAC DISORDERS,MILD,1,N,RELATED,DRUG INTERRUPTED,RECOVERED/RESOLVED,2026-08-24,2026-08-30,102,108,6,N,N,Y,Y,N,Y,
STUDY001,AE,STUDY001-SUBJ0092,1,AE1,DIARRHEA,DIARRHEA,CARDIAC DISORDERS,CARDIAC DISORDERS,MILD,1,N,RELATED,DOSE NOT CHANGED,RECOVERED/RESOLVED,2026-06-18,2026-06-18,28,28,0,N,N,N,N,N,Y,
STUDY001,AE,STUDY001-SUBJ0092,2,AE2,FATIGUE,FATIGUE,NERVOUS SYSTEM DISORDERS,NERVOUS SYSTEM DISORDERS,MILD,1,N,RELATED,DOSE NOT CHANGED,RECOVERED/RESOLVED,2026-07-19,2026-08-09,59,80,21,N,N,N,N,Y,Y,
STUDY001,AE,STUDY001-SUBJ0092,3,AE3,FEVER,FEVER,RESPIRATORY DISORDERS,RESPIRATORY DISORDERS,MODERATE,2,N,NOT RELATED,DRUG WITHDRAWN,NOT RECOVERED/NOT RESOLVED,2026-05-23,2026-08-03,2,74,72,N,N,Y,N,N,Y,
STUDY001,AE,STUDY001-SUBJ0094,1,AE1,RASH,RASH,RESPIRATORY DISORDERS,RESPIRATORY DISORDERS,SEVERE,3,Y,RELATED,DRUG INTERRUPTED,NOT RECOVERED/NOT RESOLVED,2026-01-26,2026-01-27,115,116,1,Y,N,Y,N,Y,Y,
STUDY001,AE,STUDY001-SUBJ0094,2,AE2,DIARRHEA,DIARRHEA,GASTROINTESTINAL DISORDERS,GASTROINTESTINAL DISORDERS,SEVERE,3,Y,RELATED,DRUG WITHDRAWN,NOT RECOVERED/NOT RESOLVED,2026-03-04,2026-08-15,152,316,164,Y,N,N,Y,Y,Y,
STUDY001,AE,STUDY001-SUBJ0095,1,AE1,DIARRHEA,DIARRHEA,RESPIRATORY DISORDERS,RESPIRATORY DISORDERS,MODERATE,2,N,RELATED,DRUG WITHDRAWN,RECOVERED/RESOLVED,2026-06-28,2026-07-02,97,101,4,N,N,Y,Y,Y,Y,
STUDY001,AE,STUDY001-SUBJ0095,2,AE2,VOMITING,VOMITING,GASTROINTESTINAL DISORDERS,GASTROINTESTINAL DISORDERS,SEVERE,3,Y,NOT RELATED,DRUG INTERRUPTED,RECOVERING/RESOLVING,2026-07-11,2026-08-19,110,149,39,Y,N,Y,N,Y,Y,
STUDY001,AE,STUDY001-SUBJ0095,3,AE3,INSOMNIA,INSOMNIA,GASTROINTESTINAL DISORDERS,GASTROINTESTINAL DISORDERS,MODERATE,2,N,RELATED,DOSE REDUCED,RECOVERING/RESOLVING,2026-08-02,2026-08-11,132,141,9,Y,N,N,Y,N,Y,
STUDY001,AE,STUDY001-SUBJ0095,4,AE4,FATIGUE,FATIGUE,GASTROINTESTINAL DISORDERS,GASTROINTESTINAL DISORDERS,SEVERE,3,Y,NOT RELATED,DRUG WITHDRAWN,RECOVERED/RESOLVED,2026-08-08,2026-08-14,138,144,6,Y,N,N,N,N,N,
STUDY001,AE,STUDY001-SUBJ0095,5,AE5,COUGH,COUGH,RESPIRATORY DISORDERS,RESPIRATORY DISORDERS,SEVERE,3,Y,RELATED,DOSE NOT CHANGED,FATAL,2026-07-21,2026-08-21,120,151,31,N,Y,N,N,Y,Y,
STUDY001,AE,STUDY001-SUBJ0096,1,AE1,FATIGUE,FATIGUE,RESPIRATORY DISORDERS,RESPIRATORY DISORDERS,SEVERE,3,Y,NOT RELATED,DOSE NOT CHANGED,RECOVERED/RESOLVED,2026-02-09,2026-08-08,104,284,180,N,N,Y,Y,Y,Y,
STUDY001,AE,STUDY001-SUBJ0096,2,AE2,FATIGUE,FATIGUE,NERVOUS SYSTEM DISORDERS,NERVOUS SYSTEM DISORDERS,MILD,1,N,NOT RELATED,DOSE REDUCED,FATAL,2026-03-02,2026-03-28,125,151,26,Y,Y,Y,Y,Y,N,
STUDY001,AE,STUDY001-SUBJ0096,3,AE3,DIARRHEA,DIARRHEA,NERVOUS SYSTEM DISORDERS,NERVOUS SYSTEM DISORDERS,SEVERE,3,Y,RELATED,DOSE NOT CHANGED,RECOVERED/RESOLVED,2026-05-20,2026-07-21,204,266,62,Y,N,Y,N,N,Y,
STUDY001,AE,STUDY001-SUBJ0097,1,AE1,HEADACHE,HEADACHE,GASTROINTESTINAL DISORDERS,GASTROINTESTINAL DISORDERS,MILD,1,N,RELATED,DOSE NOT CHANGED,NOT RECOVERED/NOT RESOLVED,2026-05-14,2026-05-28,27,41,14,N,N,Y,N,Y,N,
STUDY001,AE,STUDY001-SUBJ0097,2,AE2,FATIGUE,FATIGUE,RESPIRATORY DISORDERS,RESPIRATORY DISORDERS,SEVERE,3,Y,RELATED,DOSE NOT CHANGED,NOT RECOVERED/NOT RESOLVED,2026-08-09,,114,,,Y,N,Y,Y,Y,Y,
STUDY001,AE,STUDY001-SUBJ0098,1,AE1,DIZZINESS,DIZZINESS,NERVOUS SYSTEM DISORDERS,NERVOUS SYSTEM DISORDERS,MODERATE,2,N,NOT RELATED,DOSE REDUCED,FATAL,2026-01-28,2026-02-07,50,60,10,N,Y,N,Y,N,N,
STUDY001,AE,STUDY001-SUBJ0099,1,AE1,FEVER,FEVER,GASTROINTESTINAL DISORDERS,GASTROINTESTINAL DISORDERS,SEVERE,3,Y,RELATED,DOSE REDUCED,RECOVERED/RESOLVED,2026-05-07,,114,,,N,N,N,N,Y,Y,
STUDY001,AE,STUDY001-SUBJ0099,2,AE2,DIZZINESS,DIZZINESS,GASTROINTESTINAL DISORDERS,GASTROINTESTINAL DISORDERS,SEVERE,3,Y,NOT RELATED,DRUG WITHDRAWN,FATAL,2026-06-12,2026-08-16,150,215,65,N,Y,Y,Y,Y,Y,
STUDY001,AE,STUDY001-SUBJ0099,3,AE3,DIARRHEA,DIARRHEA,CARDIAC DISORDERS,CARDIAC DISORDERS,SEVERE,3,Y,RELATED,NOT APPLICABLE,NOT RECOVERED/NOT RESOLVED,2026-07-14,,182,,,N,N,N,Y,Y,N,
STUDY001,AE,STUDY001-SUBJ0099,4,AE4,COUGH,COUGH,CARDIAC DISORDERS,CARDIAC DISORDERS,MILD,1,N,NOT RELATED,DOSE NOT CHANGED,NOT RECOVERED/NOT RESOLVED,2026-06-05,2026-07-16,143,184,41,Y,N,N,Y,Y,N,
STUDY001,AE,STUDY001-SUBJ0100,1,AE1,INSOMNIA,INSOMNIA,CARDIAC DISORDERS,CARDIAC DISORDERS,SEVERE,3,Y,NOT RELATED,DOSE NOT CHANGED,RECOVERING/RESOLVING,2026-07-29,2026-08-05,8,15,7,Y,N,N,Y,Y,Y,
STUDY001,AE,STUDY001-SUBJ0100,2,AE2,NAUSEA,NAUSEA,NERVOUS SYSTEM DISORDERS,NERVOUS SYSTEM DISORDERS,MODERATE,2,N,RELATED,DRUG INTERRUPTED,FATAL,2026-07-28,,7,,,Y,Y,Y,Y,N,Y,
STUDY001,AE,STUDY001-SUBJ0100,3,AE3,HEADACHE,HEADACHE,RESPIRATORY DISORDERS,RESPIRATORY DISORDERS,SEVERE,3,Y,RELATED,DOSE REDUCED,RECOVERING/RESOLVING,2026-08-25,,35,,,Y,N,N,Y,Y,N,
STUDY001,AE,STUDY001-SUBJ0101,1,AE1,COUGH,COUGH,CARDIAC DISORDERS,CARDIAC DISORDERS,MILD,1,N,NOT RELATED,NOT APPLICABLE,RECOVERED/RESOLVED,2026-08-16,,5,,,N,N,Y,Y,Y,N,
STUDY001,AE,STUDY001-SUBJ0102,1,AE1,PAIN,PAIN,CARDIAC DISORDERS,CARDIAC DISORDERS,MODERATE,2,N,NOT RELATED,DOSE NOT CHANGED,FATAL,2026-02-20,2026-05-04,148,221,73,Y,Y,N,Y,Y,N,
STUDY001,AE,STUDY001-SUBJ0104,1,AE1,NAUSEA,NAUSEA,RESPIRATORY DISORDERS,RESPIRATORY DISORDERS,MODERATE,2,N,NOT RELATED,DRUG INTERRUPTED,RECOVERED/RESOLVED,2026-04-04,2026-04-06,30,32,2,N,N,Y,N,N,Y,
STUDY001,AE,STUDY001-SUBJ0104,2,AE2,VOMITING,VOMITING,CARDIAC DISORDERS,CARDIAC DISORDERS,SEVERE,3,Y,NOT RELATED,DRUG WITHDRAWN,NOT RECOVERED/NOT RESOLVED,2026-03-10,2026-04-28,5,54,49,Y,N,Y,Y,Y,Y,
STUDY001,AE,STUDY001-SUBJ0105,1,AE1,DIARRHEA,DIARRHEA,NERVOUS SYSTEM DISORDERS,NERVOUS SYSTEM DISORDERS,MILD,1,N,NOT RELATED,DRUG INTERRUPTED,FATAL,2026-08-14,2026-08-17,4,7,3,N,Y,N,N,Y,N,
STUDY001,AE,STUDY001-SUBJ0105,2,AE2,NAUSEA,NAUSEA,RESPIRATORY DISORDERS,RESPIRATORY DISORDERS,MODERATE,2,N,RELATED,DOSE NOT CHANGED,NOT RECOVERED/NOT RESOLVED,2026-08-28,2026-08-29,18,19,1,N,N,Y,Y,N,Y,
STUDY001,AE,STUDY001-SUBJ0105,3,AE3,DIZZINESS,DIZZINESS,CARDIAC DISORDERS,CARDIAC DISORDERS,MILD,1,N,NOT RELATED,DOSE REDUCED,RECOVERED/RESOLVED,2026-08-14,2026-08-16,4,6,2,N,N,Y,N,Y,N,
STUDY001,AE,STUDY001-SUBJ0105,4,AE4,INSOMNIA,INSOMNIA,CARDIAC DISORDERS,CARDIAC DISORDERS,MILD,1,N,RELATED,NOT APPLICABLE,RECOVERED/RESOLVED,2026-08-27,2026-08-29,17,19,2,N,N,N,N,Y,Y,
STUDY001,AE,STUDY001-SUBJ0106,1,AE1,DIARRHEA,DIARRHEA,NERVOUS SYSTEM DISORDERS,NERVOUS SYSTEM DISORDERS,MODERATE,2,N,NOT RELATED,NOT APPLICABLE,NOT RECOVERED/NOT RESOLVED,2026-08-10,2026-08-12,144,146,2,N,N,N,N,N,Y,
STUDY001,AE,STUDY001-SUBJ0106,2,AE2,FEVER,FEVER,CARDIAC DISORDERS,CARDIAC DISORDERS,MILD,1,N,RELATED,DRUG INTERRUPTED,NOT RECOVERED/NOT RESOLVED,2026-04-16,,28,,,N,N,N,Y,N,N,
STUDY001,AE,STUDY001-SUBJ0106,3,AE3,FEVER,FEVER,NERVOUS SYSTEM DISORDERS,NERVOUS SYSTEM DISORDERS,MODERATE,2,N,RELATED,DRUG WITHDRAWN,FATAL,2026-06-19,2026-06-29,92,102,10,N,Y,Y,Y,N,Y,
STUDY001,AE,STUDY001-SUBJ0106,4,AE4,COUGH,COUGH,CARDIAC DISORDERS,CARDIAC DISORDERS,MODERATE,2,N,RELATED,DOSE REDUCED,FATAL,2026-04-17,2026-06-20,29,93,64,N,Y,Y,N,Y,Y,
STUDY001,AE,STUDY001-SUBJ0107,1,AE1,COUGH,COUGH,GASTROINTESTINAL DISORDERS,GASTROINTESTINAL DISORDERS,MILD,1,N,RELATED,DRUG WITHDRAWN,RECOVERED/RESOLVED,2026-07-04,2026-07-28,16,40,24,Y,N,Y,N,N,Y,
STUDY001,AE,STUDY001-SUBJ0107,2,AE2,COUGH,COUGH,GASTROINTESTINAL DISORDERS,GASTROINTESTINAL DISORDERS,MILD,1,N,RELATED,DRUG INTERRUPTED,NOT RECOVERED/NOT RESOLVED,2026-07-05,2026-07-15,17,27,10,N,N,N,Y,N,Y,
STUDY001,AE,STUDY001-SUBJ0107,3,AE3,HEADACHE,HEADACHE,GASTROINTESTINAL DISORDERS,GASTROINTESTINAL DISORDERS,MODERATE,2,N,RELATED,DOSE NOT CHANGED,NOT RECOVERED/NOT RESOLVED,2026-07-06,2026-08-14,18,57,39,Y,N,Y,Y,N,Y,
STUDY001,AE,STUDY001-SUBJ0108,1,AE1,RASH,RASH,GASTROINTESTINAL DISORDERS,GASTROINTESTINAL DISORDERS,MILD,1,N,NOT RELATED,DRUG WITHDRAWN,RECOVERED/RESOLVED,2026-04-25,2026-07-05,29,100,71,N,N,Y,N,N,N,
STUDY001,AE,STUDY001-SUBJ0108,2,AE2,NAUSEA,NAUSEA,RESPIRATORY DISORDERS,RESPIRATORY DISORDERS,MODERATE,2,N,NOT RELATED,DOSE REDUCED,FATAL,2026-06-29,2026-06-30,94,95,1,N,Y,N,N,N,Y,
STUDY001,AE,STUDY001-SUBJ0109,1,AE1,FEVER,FEVER,RESPIRATORY DISORDERS,RESPIRATORY DISORDERS,MODERATE,2,N,NOT RELATED,DOSE REDUCED,RECOVERED/RESOLVED,2026-05-02,,138,,,Y,N,Y,Y,N,Y,
STUDY001,AE,STUDY001-SUBJ0109,2,AE2,FEVER,FEVER,RESPIRATORY DISORDERS,RESPIRATORY DISORDERS,SEVERE,3,Y,NOT RELATED,DRUG WITHDRAWN,RECOVERING/RESOLVING,2026-05-14,2026-08-07,150,235,85,Y,N,N,N,Y,N,
STUDY001,AE,STUDY001-SUBJ0109,3,AE3,DIZZINESS,DIZZINESS,RESPIRATORY DISORDERS,RESPIRATORY DISORDERS,SEVERE,3,Y,RELATED,DOSE NOT CHANGED,NOT RECOVERED/NOT RESOLVED,2026-07-31,2026-08-10,228,238,10,Y,N,Y,Y,N,N,
STUDY001,AE,STUDY001-SUBJ0109,4,AE4,HEADACHE,HEADACHE,RESPIRATORY DISORDERS,RESPIRATORY DISORDERS,MILD,1,N,RELATED,DOSE REDUCED,NOT RECOVERED/NOT RESOLVED,2026-07-13,2026-07-26,210,223,13,Y,N,Y,Y,N,N,
STUDY001,AE,STUDY001-SUBJ0109,5,AE5,COUGH,COUGH,RESPIRATORY DISORDERS,RESPIRATORY DISORDERS,MILD,1,N,RELATED,DOSE REDUCED,NOT RECOVERED/NOT RESOLVED,2026-09-03,2026-09-05,262,264,2,N,N,Y,N,N,N,
STUDY001,AE,STUDY001-SUBJ0110,1,AE1,VOMITING,VOMITING,GASTROINTESTINAL DISORDERS,GASTROINTESTINAL DISORDERS,MODERATE,2,N,RELATED,DOSE REDUCED,NOT RECOVERED/NOT RESOLVED,2026-08-12,2026-08-18,5,11,6,Y,N,Y,Y,N,Y,
STUDY001,AE,STUDY001-SUBJ0110,2,AE2,COUGH,COUGH,NERVOUS SYSTEM DISORDERS,NERVOUS SYSTEM DISORDERS,SEVERE,3,Y,NOT RELATED,DRUG INTERRUPTED,RECOVERED/RESOLVED,2026-08-24,,17,,,N,N,N,Y,N,N,
STUDY001,AE,STUDY001-SUBJ0111,1,AE1,FEVER,FEVER,CARDIAC DISORDERS,CARDIAC DISORDERS,MILD,1,N,RELATED,DRUG WITHDRAWN,RECOVERED/RESOLVED,2026-08-14,2026-08-15,18,19,1,N,N,Y,Y,Y,Y,
STUDY001,AE,STUDY001-SUBJ0111,2,AE2,COUGH,COUGH,CARDIAC DISORDERS,CARDIAC DISORDERS,SEVERE,3,Y,RELATED,DOSE NOT CHANGED,RECOVERING/RESOLVING,2026-07-28,2026-08-14,1,18,17,N,N,N,Y,Y,N,
STUDY001,AE,STUDY001-SUBJ0112,1,AE1,FEVER,FEVER,NERVOUS SYSTEM DISORDERS,NERVOUS SYSTEM DISORDERS,SEVERE,3,Y,RELATED,DOSE REDUCED,NOT RECOVERED/NOT RESOLVED,2026-08-04,2026-08-24,4,24,20,Y,N,Y,Y,Y,N,
STUDY001,AE,STUDY001-SUBJ0113,1,AE1,NAUSEA,NAUSEA,GASTROINTESTINAL DISORDERS,GASTROINTESTINAL DISORDERS,SEVERE,3,Y,NOT RELATED,DOSE REDUCED,FATAL,2026-08-11,2026-08-23,87,99,12,Y,Y,N,Y,N,N,
STUDY001,AE,STUDY001-SUBJ0113,2,AE2,RASH,RASH,CARDIAC DISORDERS,CARDIAC DISORDERS,MILD,1,N,RELATED,NOT APPLICABLE,RECOVERED/RESOLVED,2026-06-28,2026-07-20,43,65,22,N,N,Y,N,Y,N,
STUDY001,AE,STUDY001-SUBJ0114,1,AE1,INSOMNIA,INSOMNIA,RESPIRATORY DISORDERS,RESPIRATORY DISORDERS,MILD,1,N,NOT RELATED,NOT APPLICABLE,RECOVERING/RESOLVING,2026-09-03,2026-09-04,316,317,1,Y,N,Y,N,N,Y,
STUDY001,AE,STUDY001-SUBJ0114,2,AE2,HEADACHE,HEADACHE,CARDIAC DISORDERS,CARDIAC DISORDERS,MODERATE,2,N,RELATED,DRUG WITHDRAWN,RECOVERED/RESOLVED,2026-03-10,2026-05-11,139,201,62,Y,N,N,Y,N,Y,
STUDY001,AE,STUDY001-SUBJ0114,3,AE3,FATIGUE,FATIGUE,NERVOUS SYSTEM DISORDERS,NERVOUS SYSTEM DISORDERS,MODERATE,2,N,RELATED,DRUG WITHDRAWN,FATAL,2026-07-06,2026-08-02,257,284,27,N,Y,N,Y,N,N,
STUDY001,AE,STUDY001-SUBJ0115,1,AE1,RASH,RASH,RESPIRATORY DISORDERS,RESPIRATORY DISORDERS,SEVERE,3,Y,NOT RELATED,DRUG WITHDRAWN,RECOVERED/RESOLVED,2026-09-02,2026-09-03,102,103,1,Y,N,Y,N,N,Y,
STUDY001,AE,STUDY001-SUBJ0115,2,AE2,DIZZINESS,DIZZINESS,CARDIAC DISORDERS,CARDIAC DISORDERS,MILD,1,N,NOT RELATED,DRUG WITHDRAWN,FATAL,2026-08-05,2026-09-03,74,103,29,Y,Y,N,Y,Y,N,
STUDY001,AE,STUDY001-SUBJ0116,1,AE1,NAUSEA,NAUSEA,RESPIRATORY DISORDERS,RESPIRATORY DISORDERS,MODERATE,2,N,RELATED,DRUG WITHDRAWN,NOT RECOVERED/NOT RESOLVED,2026-07-25,2026-07-28,147,150,3,N,N,N,N,N,N,
STUDY001,AE,STUDY001-SUBJ0116,2,AE2,FATIGUE,FATIGUE,NERVOUS SYSTEM DISORDERS,NERVOUS SYSTEM DISORDERS,SEVERE,3,Y,NOT RELATED,DOSE NOT CHANGED,FATAL,2026-08-08,2026-08-12,161,165,4,Y,Y,N,N,N,N,
STUDY001,AE,STUDY001-SUBJ0118,1,AE1,FEVER,FEVER,RESPIRATORY DISORDERS,RESPIRATORY DISORDERS,MILD,1,N,NOT RELATED,NOT APPLICABLE,RECOVERING/RESOLVING,2026-08-20,2026-08-23,18,21,3,N,N,N,N,N,Y,
STUDY001,AE,STUDY001-SUBJ0118,2,AE2,HEADACHE,HEADACHE,NERVOUS SYSTEM DISORDERS,NERVOUS SYSTEM DISORDERS,SEVERE,3,Y,RELATED,NOT APPLICABLE,RECOVERING/RESOLVING,2026-08-23,2026-08-27,21,25,4,N,N,Y,N,N,Y,
STUDY001,AE,STUDY001-SUBJ0119,1,AE1,DIZZINESS,DIZZINESS,NERVOUS SYSTEM DISORDERS,NERVOUS SYSTEM DISORDERS,MILD,1,N,NOT RELATED,DOSE REDUCED,FATAL,2026-07-27,2026-07-31,47,51,4,Y,Y,N,N,N,Y,
STUDY001,AE,STUDY001-SUBJ0119,2,AE2,DIZZINESS,DIZZINESS,CARDIAC DISORDERS,CARDIAC DISORDERS,MODERATE,2,N,RELATED,DRUG WITHDRAWN,RECOVERING/RESOLVING,2026-08-01,2026-08-13,52,64,12,N,N,N,Y,Y,N,
STUDY001,AE,STUDY001-SUBJ0119,3,AE3,VOMITING,VOMITING,GASTROINTESTINAL DISORDERS,GASTROINTESTINAL DISORDERS,MODERATE,2,N,RELATED,DRUG INTERRUPTED,NOT RECOVERED/NOT RESOLVED,2026-07-06,2026-08-06,26,57,31,Y,N,N,Y,N,N,
