STUDYID,DOMAIN,USUBJID,SUBJID,RFSTDTC,RFENDTC,RFXSTDTC,RFXENDTC,RFICDTC,RFPENDTC,DTHDTC,DTHFL,SITEID,AGE,AGEU,SEX,RACE,ETHNIC,ARMCD,ARM,ACTARMCD,ACTARM,COUNTRY,DMDTC,DMDY
STUDY001,DM,STUDY001-SUBJ0001,SUBJ0001,2025-09-16,2026-08-23,2025-10-27,2026-09-03,2026-07-03,2026-08-23,,,22,41,YEARS,M,OTHER,HISPANIC OR LATINO,ARM3,Treatment 3,ARM3,Treatment 3,MW,2026-04-08,13
STUDY001,DM,STUDY001-SUBJ0002,SUBJ0002,2026-03-29,2026-08-18,2025-11-21,2026-08-21,2026-07-23,2026-08-18,,,16,57,YEARS,F,OTHER,NOT HISPANIC OR LATINO,ARM3,Treatment 3,ARM3,Treatment 3,KW,2026-07-15,2
STUDY001,DM,STUDY001-SUBJ0003,SUBJ0003,2026-01-25,2026-09-06,2025-11-26,2026-08-30,2026-05-23,2026-09-06,,,45,30,YEARS,F,ASIAN,HISPANIC OR LATINO,ARM1,Treatment 1,ARM1,Treatment 1,GM,2026-07-08,14
STUDY001,DM,STUDY001-SUBJ0004,SUBJ0004,2026-02-06,2026-08-14,2025-10-14,2026-08-31,2026-04-19,2026-08-14,,,48,51,YEARS,M,BLACK OR AFRICAN AMERICAN,HISPANIC OR LATINO,ARM3,Treatment 3,ARM3,Treatment 3,AM,2026-01-17,9
STUDY001,DM,STUDY001-SUBJ0005,SUBJ0005,2026-03-06,2026-08-14,2026-03-30,2026-08-31,2026-03-15,2026-08-14,,,34,32,YEARS,M,ASIAN,NOT HISPANIC OR LATINO,ARM3,Treatment 3,ARM3,Treatment 3,EE,2026-01-16,28
STUDY001,DM,STUDY001-SUBJ0006,SUBJ0006,2026-01-01,2026-09-03,2026-05-19,2026-08-14,2026-01-20,2026-09-03,,,40,66,YEARS,M,ASIAN,HISPANIC OR LATINO,ARM2,Treatment 2,ARM2,Treatment 2,MY,2026-01-04,26
STUDY001,DM,STUDY001-SUBJ0007,SUBJ0007,2025-10-09,2026-09-10,2025-09-14,2026-09-02,2026-01-03,2026-09-10,,,9,40,YEARS,F,OTHER,NOT HISPANIC OR LATINO,ARM3,Treatment 3,ARM3,Treatment 3,OM,2026-03-25,25
STUDY001,DM,STUDY001-SUBJ0008,SUBJ0008,2025-10-22,2026-08-24,2025-12-29,2026-09-03,2026-02-20,2026-08-24,,,17,34,YEARS,M,OTHER,NOT HISPANIC OR LATINO,ARM2,Treatment 2,ARM2,Treatment 2,MX,2026-04-28,20
STUDY001,DM,STUDY001-SUBJ0009,SUBJ0009,2026-07-05,2026-09-10,2026-07-28,2026-09-10,2026-03-29,2026-09-10,,,40,28,YEARS,F,OTHER,NOT HISPANIC OR LATINO,ARM1,Treatment 1,ARM1,Treatment 1,BF,2026-08-02,17
STUDY001,DM,STUDY001-SUBJ0010,SUBJ0010,2026-07-09,2026-09-08,2026-04-26,2026-08-15,2026-02-17,2026-09-08,,,28,22,YEARS,F,OTHER,NOT HISPANIC OR LATINO,ARM1,Treatment 1,ARM1,Treatment 1,CF,2025-11-29,29
STUDY001,DM,STUDY001-SUBJ0011,SUBJ0011,2025-11-07,2026-08-22,2025-12-21,2026-08-22,2025-11-11,2026-08-22,,,6,57,YEARS,F,ASIAN,NOT HISPANIC OR LATINO,ARM3,Treatment 3,ARM3,Treatment 3,AR,2026-04-08,4
STUDY001,DM,STUDY001-SUBJ0012,SUBJ0012,2025-09-14,2026-09-08,2026-02-21,2026-08-17,2026-05-18,2026-09-08,,,37,30,YEARS,M,WHITE,NOT HISPANIC OR LATINO,ARM2,Treatment 2,ARM2,Treatment 2,GY,2026-04-27,8
STUDY001,DM,STUDY001-SUBJ0013,SUBJ0013,2025-11-26,2026-09-07,2025-12-11,2026-09-05,2026-03-24,2026-09-07,,,38,66,YEARS,M,AMERICAN INDIAN OR ALASKA NATIVE,NOT HISPANIC OR LATINO,ARM3,Treatment 3,ARM3,Treatment 3,GB,2026-06-19,12
STUDY001,DM,STUDY001-SUBJ0014,SUBJ0014,2026-06-04,2026-08-26,2026-06-23,2026-09-09,2025-12-12,2026-08-26,,,16,20,YEARS,F,OTHER,HISPANIC OR LATINO,ARM2,Treatment 2,ARM2,Treatment 2,GH,2026-08-02,7
STUDY001,DM,STUDY001-SUBJ0015,SUBJ0015,2026-04-25,2026-08-26,2026-01-23,2026-08-18,2026-02-22,2026-08-26,,,24,77,YEARS,M,ASIAN,NOT HISPANIC OR LATINO,ARM2,Treatment 2,ARM2,Treatment 2,HR,2026-04-17,27
STUDY001,DM,STUDY001-SUBJ0016,SUBJ0016,2026-07-26,2026-09-09,2025-09-18,2026-08-23,2025-12-30,2026-09-09,,,44,31,YEARS,F,OTHER,HISPANIC OR LATINO,ARM2,Treatment 2,ARM2,Treatment 2,NZ,2026-06-30,18
STUDY001,DM,STUDY001-SUBJ0017,SUBJ0017,2025-09-17,2026-08-26,2026-02-11,2026-08-16,2026-08-10,2026-08-26,,,16,63,YEARS,F,WHITE,NOT HISPANIC OR LATINO,ARM1,Treatment 1,ARM1,Treatment 1,AR,2025-11-09,26
STUDY001,DM,STUDY001-SUBJ0018,SUBJ0018,2025-09-18,2026-09-06,2026-05-31,2026-08-14,2026-02-08,2026-09-06,,,19,21,YEARS,M,ASIAN,NOT HISPANIC OR LATINO,ARM2,Treatment 2,ARM2,Treatment 2,CD,2026-01-16,16
STUDY001,DM,STUDY001-SUBJ0019,SUBJ0019,2026-01-28,2026-08-31,2026-05-23,2026-08-13,2026-07-15,2026-08-31,,,5,38,YEARS,M,BLACK OR AFRICAN AMERICAN,NOT HISPANIC OR LATINO,ARM3,Treatment 3,ARM3,Treatment 3,AZ,2026-05-07,15
STUDY001,DM,STUDY001-SUBJ0020,SUBJ0020,2026-02-16,2026-08-13,2025-12-13,2026-09-08,2026-02-18,2026-08-13,,,28,48,YEARS,F,OTHER,NOT HISPANIC OR LATINO,ARM2,Treatment 2,ARM2,Treatment 2,NA,2025-12-20,27
STUDY001,DM,STUDY001-SUBJ0021,SUBJ0021,2026-04-01,2026-08-16,2025-12-09,2026-09-08,2025-11-27,2026-08-16,,,46,52,YEARS,F,AMERICAN INDIAN OR ALASKA NATIVE,HISPANIC OR LATINO,ARM1,Treatment 1,ARM1,Treatment 1,SD,2026-07-21,27
STUDY001,DM,STUDY001-SUBJ0022,SUBJ0022,2025-10-22,2026-08-15,2026-05-30,2026-08-30,2026-04-03,2026-08-15,,,43,26,YEARS,M,WHITE,NOT HISPANIC OR LATINO,ARM3,Treatment 3,ARM3,Treatment 3,MC,2025-09-19,23
STUDY001,DM,STUDY001-SUBJ0023,SUBJ0023,2025-11-05,2026-08-30,2026-01-26,2026-09-05,2026-07-07,2026-08-30,,,5,56,YEARS,M,BLACK OR AFRICAN AMERICAN,NOT HISPANIC OR LATINO,ARM3,Treatment 3,ARM3,Treatment 3,FM,2026-08-12,6
STUDY001,DM,STUDY001-SUBJ0024,SUBJ0024,2026-07-08,2026-09-01,2026-04-18,2026-09-01,2026-02-02,2026-09-01,,,11,74,YEARS,F,AMERICAN INDIAN OR ALASKA NATIVE,HISPANIC OR LATINO,ARM1,Treatment 1,ARM1,Treatment 1,PW,2025-09-23,9
STUDY001,DM,STUDY001-SUBJ0025,SUBJ0025,2025-10-28,2026-08-27,2026-02-14,2026-09-02,2026-07-19,2026-08-27,,,45,51,YEARS,F,OTHER,HISPANIC OR LATINO,ARM2,Treatment 2,ARM2,Treatment 2,TD,2025-11-20,12
STUDY001,DM,STUDY001-SUBJ0026,SUBJ0026,2026-04-29,2026-08-21,2025-09-17,2026-08-13,2025-09-18,2026-08-21,,,40,20,YEARS,F,ASIAN,NOT HISPANIC OR LATINO,ARM3,Treatment 3,ARM3,Treatment 3,UY,2026-02-09,24
STUDY001,DM,STUDY001-SUBJ0027,SUBJ0027,2026-04-04,2026-09-05,2025-11-12,2026-09-04,2026-04-12,2026-09-05,,,17,44,YEARS,M,WHITE,HISPANIC OR LATINO,ARM2,Treatment 2,ARM2,Treatment 2,IQ,2026-04-11,19
STUDY001,DM,STUDY001-SUBJ0028,SUBJ0028,2025-12-30,2026-08-15,2025-10-27,2026-08-15,2025-12-08,2026-08-15,,,39,68,YEARS,M,AMERICAN INDIAN OR ALASKA NATIVE,NOT HISPANIC OR LATINO,ARM1,Treatment 1,ARM1,Treatment 1,BD,2026-05-19,28
STUDY001,DM,STUDY001-SUBJ0029,SUBJ0029,2026-08-03,2026-08-20,2025-12-19,2026-08-19,2026-05-17,2026-08-20,,,47,48,YEARS,M,AMERICAN INDIAN OR ALASKA NATIVE,HISPANIC OR LATINO,ARM2,Treatment 2,ARM2,Treatment 2,GT,2025-12-17,11
STUDY001,DM,STUDY001-SUBJ0030,SUBJ0030,2026-05-03,2026-08-24,2026-03-25,2026-08-13,2025-09-25,2026-08-24,,,2,29,YEARS,M,WHITE,HISPANIC OR LATINO,ARM1,Treatment 1,ARM1,Treatment 1,BJ,2026-02-17,20
STUDY001,DM,STUDY001-SUBJ0031,SUBJ0031,2026-02-14,2026-09-03,2026-03-15,2026-08-25,2025-10-25,2026-09-03,,,20,22,YEARS,M,WHITE,HISPANIC OR LATINO,ARM1,Treatment 1,ARM1,Treatment 1,BS,2026-02-22,18
STUDY001,DM,STUDY001-SUBJ0032,SUBJ0032,2026-04-21,2026-08-14,2026-02-06,2026-08-23,2026-04-20,2026-08-14,,,30,20,YEARS,F,WHITE,NOT HISPANIC OR LATINO,ARM2,Treatment 2,ARM2,Treatment 2,KN,2026-06-24,21
STUDY001,DM,STUDY001-SUBJ0033,SUBJ0033,2026-01-07,2026-08-16,2025-12-03,2026-09-04,2026-03-01,2026-08-16,,,33,56,YEARS,M,BLACK OR AFRICAN AMERICAN,NOT HISPANIC OR LATINO,ARM1,Treatment 1,ARM1,Treatment 1,MT,2025-12-11,8
STUDY001,DM,STUDY001-SUBJ0034,SUBJ0034,2025-10-15,2026-09-01,2025-12-17,2026-09-01,2026-07-31,2026-09-01,,,32,50,YEARS,F,AMERICAN INDIAN OR ALASKA NATIVE,NOT HISPANIC OR LATINO,ARM3,Treatment 3,ARM3,Treatment 3,GW,2025-09-27,9
STUDY001,DM,STUDY001-SUBJ0035,SUBJ0035,2026-07-08,2026-08-23,2026-01-07,2026-08-30,2026-01-08,2026-08-23,,,36,71,YEARS,F,AMERICAN INDIAN OR ALASKA NATIVE,HISPANIC OR LATINO,ARM2,Treatment 2,ARM2,Treatment 2,ER,2026-03-19,5
STUDY001,DM,STUDY001-SUBJ0036,SUBJ0036,2026-07-17,2026-08-15,2025-09-28,2026-08-13,2026-02-10,2026-08-15,,,8,55,YEARS,F,OTHER,HISPANIC OR LATINO,ARM3,Treatment 3,ARM3,Treatment 3,MM,2026-02-03,5
STUDY001,DM,STUDY001-SUBJ0037,SUBJ0037,2026-03-13,2026-08-13,2026-04-17,2026-09-06,2026-06-02,2026-08-13,,,1,27,YEARS,M,BLACK OR AFRICAN AMERICAN,HISPANIC OR LATINO,ARM2,Treatment 2,ARM2,Treatment 2,PS,2026-06-02,6
STUDY001,DM,STUDY001-SUBJ0038,SUBJ0038,2025-10-26,2026-08-29,2025-09-17,2026-08-15,2026-08-11,2026-08-29,,,31,44,YEARS,M,AMERICAN INDIAN OR ALASKA NATIVE,HISPANIC OR LATINO,ARM2,Treatment 2,ARM2,Treatment 2,MD,2026-07-03,19
STUDY001,DM,STUDY001-SUBJ0039,SUBJ0039,2025-12-29,2026-08-22,2026-07-21,2026-08-17,2026-05-13,2026-08-22,,,23,59,YEARS,M,AMERICAN INDIAN OR ALASKA NATIVE,NOT HISPANIC OR LATINO,ARM3,Treatment 3,ARM3,Treatment 3,DM,2025-12-10,12
STUDY001,DM,STUDY001-SUBJ0040,SUBJ0040,2026-06-03,2026-08-31,2026-05-05,2026-08-17,2026-01-26,2026-08-31,,,47,66,YEARS,F,WHITE,HISPANIC OR LATINO,ARM2,Treatment 2,ARM2,Treatment 2,HN,2026-08-02,9
STUDY001,DM,STUDY001-SUBJ0041,SUBJ0041,2026-01-03,2026-08-23,2026-03-17,2026-09-08,2026-05-13,2026-08-23,,,19,53,YEARS,M,AMERICAN INDIAN OR ALASKA NATIVE,NOT HISPANIC OR LATINO,ARM3,Treatment 3,ARM3,Treatment 3,IQ,2025-09-21,15
STUDY001,DM,STUDY001-SUBJ0042,SUBJ0042,2026-03-15,2026-08-19,2025-10-21,2026-09-02,2025-09-15,2026-08-19,,,34,60,YEARS,M,WHITE,NOT HISPANIC OR LATINO,ARM2,Treatment 2,ARM2,Treatment 2,AR,2026-02-26,21
STUDY001,DM,STUDY001-SUBJ0043,SUBJ0043,2026-04-27,2026-09-02,2025-10-12,2026-08-21,2026-07-30,2026-09-02,,,15,29,YEARS,M,WHITE,HISPANIC OR LATINO,ARM2,Treatment 2,ARM2,Treatment 2,IT,2025-09-11,30
STUDY001,DM,STUDY001-SUBJ0044,SUBJ0044,2026-05-29,2026-09-11,2026-04-07,2026-08-26,2026-02-11,2026-09-11,,,39,72,YEARS,M,ASIAN,NOT HISPANIC OR LATINO,ARM2,Treatment 2,ARM2,Treatment 2,SA,2025-12-13,12
STUDY001,DM,STUDY001-SUBJ0045,SUBJ0045,2025-11-07,2026-09-11,2025-11-20,2026-08-17,2025-09-19,2026-09-11,,,35,24,YEARS,M,ASIAN,NOT HISPANIC OR LATINO,ARM1,Treatment 1,ARM1,Treatment 1,TR,2025-09-27,19
STUDY001,DM,STUDY001-SUBJ0046,SUBJ0046,2026-04-05,2026-09-05,2025-11-23,2026-09-03,2025-12-21,2026-09-05,,,37,54,YEARS,F,OTHER,NOT HISPANIC OR LATINO,ARM1,Treatment 1,ARM1,Treatment 1,NZ,2026-04-01,22
STUDY001,DM,STUDY001-SUBJ0047,SUBJ0047,2026-06-07,2026-09-06,2026-04-04,2026-09-01,2026-04-15,2026-09-06,,,17,80,YEARS,F,OTHER,NOT HISPANIC OR LATINO,ARM2,Treatment 2,ARM2,Treatment 2,DZ,2026-05-06,18
STUDY001,DM,STUDY001-SUBJ0048,SUBJ0048,2026-01-14,2026-09-09,2025-11-16,2026-09-09,2025-10-07,2026-09-09,,,7,38,YEARS,F,BLACK OR AFRICAN AMERICAN,HISPANIC OR LATINO,ARM3,Treatment 3,ARM3,Treatment 3,BF,2026-05-23,11
STUDY001,DM,STUDY001-SUBJ0049,SUBJ0049,2026-07-09,2026-09-01,2026-06-03,2026-09-07,2026-07-01,2026-09-01,,,37,49,YEARS,M,AMERICAN INDIAN OR ALASKA NATIVE,HISPANIC OR LATINO,ARM1,Treatment 1,ARM1,Treatment 1,SI,2026-04-17,19
STUDY001,DM,STUDY001-SUBJ0050,SUBJ0050,2025-12-09,2026-08-20,2026-04-18,2026-08-24,2026-03-29,2026-08-20,,,30,41,YEARS,M,AMERICAN INDIAN OR ALASKA NATIVE,HISPANIC OR LATINO,ARM3,Treatment 3,ARM3,Treatment 3,DZ,2026-05-14,2
STUDY001,DM,STUDY001-SUBJ0051,SUBJ0051,2026-06-24,2026-09-02,2026-05-02,2026-09-08,2026-02-27,2026-09-02,,,36,44,YEARS,F,ASIAN,HISPANIC OR LATINO,ARM2,Treatment 2,ARM2,Treatment 2,SC,2026-06-21,23
STUDY001,DM,STUDY001-SUBJ0052,SUBJ0052,2025-11-14,2026-08-26,2025-10-04,2026-08-19,2025-11-29,2026-08-26,,,6,18,YEARS,F,BLACK OR AFRICAN AMERICAN,HISPANIC OR LATINO,ARM2,Treatment 2,ARM2,Treatment 2,CR,2026-03-31,5
STUDY001,DM,STUDY001-SUBJ0053,SUBJ0053,2026-05-24,2026-08-18,2025-09-26,2026-08-23,2026-05-07,2026-08-18,,,48,71,YEARS,F,BLACK OR AFRICAN AMERICAN,NOT HISPANIC OR LATINO,ARM3,Treatment 3,ARM3,Treatment 3,ZW,2026-01-28,16
STUDY001,DM,STUDY001-SUBJ0054,SUBJ0054,2025-12-16,2026-08-13,2026-03-02,2026-08-20,2026-03-10,2026-08-13,,,46,36,YEARS,F,WHITE,HISPANIC OR LATINO,ARM1,Treatment 1,ARM1,Treatment 1,SR,2026-04-05,29
STUDY001,DM,STUDY001-SUBJ0055,SUBJ0055,2026-04-16,2026-08-13,2026-06-30,2026-09-02,2025-11-11,2026-08-13,,,47,23,YEARS,F,WHITE,NOT HISPANIC OR LATINO,ARM1,Treatment 1,ARM1,Treatment 1,BE,2025-10-11,30
STUDY001,DM,STUDY001-SUBJ0056,SUBJ0056,2025-10-07,2026-08-22,2026-06-01,2026-08-16,2025-12-05,2026-08-22,,,34,67,YEARS,F,BLACK OR AFRICAN AMERICAN,NOT HISPANIC OR LATINO,ARM3,Treatment 3,ARM3,Treatment 3,SV,2025-11-15,12
STUDY001,DM,STUDY001-SUBJ0057,SUBJ0057,2026-01-05,2026-09-10,2026-05-16,2026-09-01,2026-01-21,2026-09-10,,,13,29,YEARS,F,ASIAN,HISPANIC OR LATINO,ARM3,Treatment 3,ARM3,Treatment 3,TJ,2026-03-01,2
STUDY001,DM,STUDY001-SUBJ0058,SUBJ0058,2026-01-25,2026-09-11,2026-05-24,2026-08-18,2026-08-05,2026-09-11,,,2,44,YEARS,M,WHITE,NOT HISPANIC OR LATINO,ARM2,Treatment 2,ARM2,Treatment 2,DJ,2026-06-01,1
STUDY001,DM,STUDY001-SUBJ0059,SUBJ0059,2026-02-01,2026-08-29,2026-03-01,2026-08-24,2026-04-12,2026-08-29,,,34,27,YEARS,F,ASIAN,HISPANIC OR LATINO,ARM3,Treatment 3,ARM3,Treatment 3,MN,2026-04-16,13
STUDY001,DM,STUDY001-SUBJ0060,SUBJ0060,2026-03-09,2026-09-05,2026-07-09,2026-08-25,2026-07-24,2026-09-05,,,5,29,YEARS,M,ASIAN,HISPANIC OR LATINO,ARM1,Treatment 1,ARM1,Treatment 1,DO,2026-02-11,7
STUDY001,DM,STUDY001-SUBJ0061,SUBJ0061,2026-05-08,2026-09-02,2025-10-30,2026-09-06,2025-10-21,2026-09-02,,,35,49,YEARS,M,WHITE,HISPANIC OR LATINO,ARM2,Treatment 2,ARM2,Treatment 2,AD,2025-11-29,18
STUDY001,DM,STUDY001-SUBJ0062,SUBJ0062,2026-04-21,2026-08-20,2025-11-08,2026-09-07,2026-02-17,2026-08-20,,,45,70,YEARS,F,WHITE,HISPANIC OR LATINO,ARM2,Treatment 2,ARM2,Treatment 2,LC,2025-11-22,17
STUDY001,DM,STUDY001-SUBJ0063,SUBJ0063,2026-06-13,2026-08-13,2026-05-03,2026-09-05,2026-05-24,2026-08-13,,,30,43,YEARS,M,ASIAN,NOT HISPANIC OR LATINO,ARM3,Treatment 3,ARM3,Treatment 3,DJ,2026-06-28,22
STUDY001,DM,STUDY001-SUBJ0064,SUBJ0064,2026-01-30,2026-09-05,2026-01-07,2026-08-24,2025-10-06,2026-09-05,,,38,42,YEARS,M,WHITE,HISPANIC OR LATINO,ARM3,Treatment 3,ARM3,Treatment 3,CF,2025-10-21,7
STUDY001,DM,STUDY001-SUBJ0065,SUBJ0065,2026-05-17,2026-08-14,2026-01-18,2026-09-10,2025-12-19,2026-08-14,,,27,77,YEARS,F,WHITE,NOT HISPANIC OR LATINO,ARM3,Treatment 3,ARM2,Treatment 2,KG,2026-05-18,14
STUDY001,DM,STUDY001-SUBJ0066,SUBJ0066,2025-10-28,2026-08-19,2026-08-10,2026-09-04,2025-09-25,2026-08-19,,,35,30,YEARS,F,WHITE,HISPANIC OR LATINO,ARM1,Treatment 1,ARM1,Treatment 1,GY,2026-06-30,26
STUDY001,DM,STUDY001-SUBJ0067,SUBJ0067,2025-12-25,2026-09-02,2026-06-25,2026-08-17,2025-12-28,2026-09-02,,,49,65,YEARS,F,WHITE,HISPANIC OR LATINO,ARM1,Treatment 1,ARM1,Treatment 1,VC,2026-01-16,19
STUDY001,DM,STUDY001-SUBJ0068,SUBJ0068,2025-11-18,2026-08-18,2026-02-01,2026-08-31,2026-07-13,2026-08-18,,,48,63,YEARS,F,AMERICAN INDIAN OR ALASKA NATIVE,HISPANIC OR LATINO,ARM2,Treatment 2,ARM2,Treatment 2,SE,2026-05-19,18
STUDY001,DM,STUDY001-SUBJ0069,SUBJ0069,2025-12-19,2026-08-15,2026-05-22,2026-08-16,2025-10-26,2026-08-15,,,15,20,YEARS,M,AMERICAN INDIAN OR ALASKA NATIVE,HISPANIC OR LATINO,ARM1,Treatment 1,ARM1,Treatment 1,MW,2025-11-13,27
STUDY001,DM,STUDY001-SUBJ0070,SUBJ0070,2025-11-27,2026-08-29,2025-11-22,2026-09-04,2026-04-03,2026-08-29,,,36,50,YEARS,F,BLACK OR AFRICAN AMERICAN,HISPANIC OR LATINO,ARM1,Treatment 1,ARM1,Treatment 1,ME,2026-03-27,27
STUDY001,DM,STUDY001-SUBJ0071,SUBJ0071,2026-03-17,2026-09-07,2026-05-19,2026-09-08,2026-02-02,2026-09-07,,,33,26,YEARS,F,BLACK OR AFRICAN AMERICAN,NOT HISPANIC OR LATINO,ARM1,Treatment 1,ARM1,Treatment 1,MV,2025-09-18,19
STUDY001,DM,STUDY001-SUBJ0072,SUBJ0072,2025-11-15,2026-08-17,2026-05-12,2026-08-16,2025-10-01,2026-08-17,,,36,18,YEARS,F,WHITE,NOT HISPANIC OR LATINO,ARM3,Treatment 3,ARM3,Treatment 3,KE,2025-12-07,2
STUDY001,DM,STUDY001-SUBJ0073,SUBJ0073,2026-04-05,2026-09-04,2026-07-26,2026-08-16,2026-07-01,2026-09-04,,,14,28,YEARS,F,WHITE,HISPANIC OR LATINO,ARM1,Treatment 1,ARM1,Treatment 1,TR,2026-07-15,5
STUDY001,DM,STUDY001-SUBJ0074,SUBJ0074,2026-05-17,2026-09-09,2025-09-19,2026-08-14,2025-10-18,2026-09-09,,,18,66,YEARS,F,ASIAN,NOT HISPANIC OR LATINO,ARM2,Treatment 2,ARM2,Treatment 2,DO,2026-08-12,1
STUDY001,DM,STUDY001-SUBJ0075,SUBJ0075,2025-12-09,2026-09-02,2026-05-04,2026-09-03,2026-04-01,2026-09-02,,,42,70,YEARS,F,WHITE,HISPANIC OR LATINO,ARM1,Treatment 1,ARM1,Treatment 1,JP,2025-11-05,9
STUDY001,DM,STUDY001-SUBJ0076,SUBJ0076,2025-10-31,2026-08-27,2026-01-07,2026-08-18,2026-07-02,2026-08-27,,,44,75,YEARS,F,BLACK OR AFRICAN AMERICAN,HISPANIC OR LATINO,ARM2,Treatment 2,ARM2,Treatment 2,KW,2026-02-28,11
STUDY001,DM,STUDY001-SUBJ0077,SUBJ0077,2026-06-06,2026-08-19,2025-10-12,2026-08-23,2026-01-20,2026-08-19,,,44,20,YEARS,F,AMERICAN INDIAN OR ALASKA NATIVE,NOT HISPANIC OR LATINO,ARM3,Treatment 3,ARM3,Treatment 3,NI,2025-09-28,5
STUDY001,DM,STUDY001-SUBJ0078,SUBJ0078,2025-11-01,2026-09-04,2026-03-23,2026-08-27,2026-05-10,2026-09-04,,,38,35,YEARS,M,AMERICAN INDIAN OR ALASKA NATIVE,HISPANIC OR LATINO,ARM3,Treatment 3,ARM3,Treatment 3,AG,2026-07-03,9
STUDY001,DM,STUDY001-SUBJ0079,SUBJ0079,2025-09-28,2026-08-14,2026-04-13,2026-08-20,2026-03-17,2026-08-14,,,16,49,YEARS,M,AMERICAN INDIAN OR ALASKA NATIVE,NOT HISPANIC OR LATINO,ARM2,Treatment 2,ARM2,Treatment 2,TG,2025-09-20,16
STUDY001,DM,STUDY001-SUBJ0080,SUBJ0080,2026-08-10,2026-08-25,2025-11-26,2026-08-18,2026-04-14,2026-08-25,,,6,32,YEARS,M,AMERICAN INDIAN OR ALASKA NATIVE,NOT HISPANIC OR LATINO,ARM1,Treatment 1,ARM1,Treatment 1,MD,2026-03-30,6
STUDY001,DM,STUDY001-SUBJ0081,SUBJ0081,2025-12-11,2026-09-05,2026-05-15,2026-09-08,2026-07-09,2026-09-05,,,43,68,YEARS,M,ASIAN,HISPANIC OR LATINO,ARM2,Treatment 2,ARM2,Treatment 2,SO,2025-10-23,5
STUDY001,DM,STUDY001-SUBJ0082,SUBJ0082,2026-03-04,2026-08-16,2025-10-16,2026-08-31,2025-09-25,2026-08-16,,,12,45,YEARS,F,AMERICAN INDIAN OR ALASKA NATIVE,NOT HISPANIC OR LATINO,ARM2,Treatment 2,ARM2,Treatment 2,OM,2025-12-25,28
STUDY001,DM,STUDY001-SUBJ0083,SUBJ0083,2026-04-10,2026-09-10,2026-04-30,2026-08-17,2025-09-27,2026-09-10,,,10,33,YEARS,M,ASIAN,HISPANIC OR LATINO,ARM3,Treatment 3,ARM3,Treatment 3,BH,2026-04-20,15
STUDY001,DM,STUDY001-SUBJ0084,SUBJ0084,2026-07-27,2026-09-08,2026-03-11,2026-08-26,2025-09-26,2026-09-08,,,43,22,YEARS,F,ASIAN,HISPANIC OR LATINO,ARM1,Treatment 1,ARM1,Treatment 1,CR,2025-09-24,6
STUDY001,DM,STUDY001-SUBJ0085,SUBJ0085,2026-07-27,2026-08-29,2026-01-22,2026-09-09,2025-12-30,2026-08-29,,,45,29,YEARS,M,WHITE,HISPANIC OR LATINO,ARM1,Treatment 1,ARM1,Treatment 1,EE,2026-07-12,19
STUDY001,DM,STUDY001-SUBJ0086,SUBJ0086,2025-12-17,2026-08-15,2026-02-13,2026-09-09,2026-07-10,2026-08-15,,,28,42,YEARS,F,BLACK OR AFRICAN AMERICAN,NOT HISPANIC OR LATINO,ARM1,Treatment 1,ARM1,Treatment 1,AO,2026-03-23,11
STUDY001,DM,STUDY001-SUBJ0087,SUBJ0087,2026-03-07,2026-09-11,2026-03-11,2026-09-10,2026-07-28,2026-09-11,,,18,71,YEARS,F,ASIAN,NOT HISPANIC OR LATINO,ARM1,Treatment 1,ARM1,Treatment 1,CU,2025-09-21,3
STUDY001,DM,STUDY001-SUBJ0088,SUBJ0088,2026-03-17,2026-09-06,2026-05-01,2026-08-19,2025-12-27,2026-09-06,,,42,32,YEARS,M,WHITE,HISPANIC OR LATINO,ARM3,Treatment 3,ARM3,Treatment 3,LB,2026-07-11,7
STUDY001,DM,STUDY001-SUBJ0089,SUBJ0089,2025-12-09,2026-08-26,2026-03-20,2026-09-11,2026-06-14,2026-08-26,,,21,63,YEARS,M,WHITE,NOT HISPANIC OR LATINO,ARM1,Treatment 1,ARM1,Treatment 1,LR,2025-10-26,24
STUDY001,DM,STUDY001-SUBJ0090,SUBJ0090,2026-06-01,2026-08-29,2026-06-17,2026-08-19,2025-09-14,2026-08-29,,,21,53,YEARS,F,ASIAN,NOT HISPANIC OR LATINO,ARM3,Treatment 3,ARM3,Treatment 3,QA,2026-04-26,29
STUDY001,DM,STUDY001-SUBJ0091,SUBJ0091,2025-11-12,2026-08-15,2026-02-15,2026-09-06,2025-11-22,2026-08-15,,,22,72,YEARS,M,AMERICAN INDIAN OR ALASKA NATIVE,HISPANIC OR LATINO,ARM1,Treatment 1,ARM1,Treatment 1,KN,2026-05-06,11
STUDY001,DM,STUDY001-SUBJ0092,SUBJ0092,2026-04-21,2026-08-18,2025-11-04,2026-08-16,2026-08-08,2026-08-18,,,18,40,YEARS,F,ASIAN,HISPANIC OR LATINO,ARM3,Treatment 3,ARM3,Treatment 3,MT,2026-07-08,4
STUDY001,DM,STUDY001-SUBJ0093,SUBJ0093,2025-09-17,2026-09-11,2026-03-04,2026-08-22,2026-05-10,2026-09-11,,,2,69,YEARS,F,OTHER,NOT HISPANIC OR LATINO,ARM1,Treatment 1,ARM1,Treatment 1,SD,2026-06-14,8
STUDY001,DM,STUDY001-SUBJ0094,SUBJ0094,2025-09-13,2026-08-19,2026-03-09,2026-09-08,2026-03-30,2026-08-19,,,19,33,YEARS,F,AMERICAN INDIAN OR ALASKA NATIVE,HISPANIC OR LATINO,ARM2,Treatment 2,ARM2,Treatment 2,DM,2026-01-21,17
STUDY001,DM,STUDY001-SUBJ0095,SUBJ0095,2026-03-10,2026-08-28,2026-05-21,2026-08-27,2026-05-03,2026-08-28,,,17,47,YEARS,M,AMERICAN INDIAN OR ALASKA NATIVE,HISPANIC OR LATINO,ARM1,Treatment 1,ARM1,Treatment 1,SE,2026-02-23,11
STUDY001,DM,STUDY001-SUBJ0096,SUBJ0096,2026-01-10,2026-08-18,2026-07-26,2026-08-22,2026-05-23,2026-08-18,,,11,68,YEARS,F,WHITE,HISPANIC OR LATINO,ARM2,Treatment 2,ARM2,Treatment 2,SC,2026-01-18,14
STUDY001,DM,STUDY001-SUBJ0097,SUBJ0097,2026-05-04,2026-08-19,2026-03-07,2026-08-26,2026-02-10,2026-08-19,,,1,41,YEARS,M,BLACK OR AFRICAN AMERICAN,HISPANIC OR LATINO,ARM1,Treatment 1,ARM1,Treatment 1,GA,2025-12-18,13
STUDY001,DM,STUDY001-SUBJ0098,SUBJ0098,2026-04-21,2026-08-26,2026-06-23,2026-08-22,2026-03-20,2026-08-26,,,11,54,YEARS,F,ASIAN,HISPANIC OR LATINO,ARM2,Treatment 2,ARM2,Treatment 2,MK,2025-11-17,19
STUDY001,DM,STUDY001-SUBJ0099,SUBJ0099,2026-04-21,2026-09-08,2026-03-08,2026-09-02,2026-04-29,2026-09-08,,,31,78,YEARS,F,WHITE,HISPANIC OR LATINO,ARM3,Treatment 3,ARM3,Treatment 3,AT,2026-07-15,26
STUDY001,DM,STUDY001-SUBJ0100,SUBJ0100,2026-02-12,2026-08-16,2026-04-30,2026-08-24,2026-05-29,2026-08-16,,,26,20,YEARS,F,WHITE,HISPANIC OR LATINO,ARM3,Treatment 3,ARM3,Treatment 3,OM,2026-02-07,24
STUDY001,DM,STUDY001-SUBJ0101,SUBJ0101,2025-12-08,2026-08-22,2026-01-14,2026-09-10,2025-10-27,2026-08-22,,,24,20,YEARS,F,BLACK OR AFRICAN AMERICAN,NOT HISPANIC OR LATINO,ARM3,Treatment 3,ARM3,Treatment 3,PH,2026-06-21,6
STUDY001,DM,STUDY001-SUBJ0102,SUBJ0102,2025-11-17,2026-08-20,2026-07-30,2026-08-24,2025-11-19,2026-08-20,,,20,56,YEARS,M,WHITE,HISPANIC OR LATINO,ARM2,Treatment 2,ARM3,Treatment 3,WS,2026-03-13,30
STUDY001,DM,STUDY001-SUBJ0103,SUBJ0103,2026-04-19,2026-08-25,2026-02-02,2026-09-01,2025-11-09,2026-08-25,,,11,43,YEARS,F,ASIAN,HISPANIC OR LATINO,ARM3,Treatment 3,ARM3,Treatment 3,BR,2026-07-19,9
STUDY001,DM,STUDY001-SUBJ0104,SUBJ0104,2026-07-16,2026-08-13,2026-05-04,2026-09-03,2026-03-04,2026-08-13,,,13,40,YEARS,F,AMERICAN INDIAN OR ALASKA NATIVE,HISPANIC OR LATINO,ARM1,Treatment 1,ARM1,Treatment 1,TT,2025-10-12,29
STUDY001,DM,STUDY001-SUBJ0105,SUBJ0105,2026-05-13,2026-09-03,2025-12-12,2026-09-09,2026-02-07,2026-09-03,,,45,53,YEARS,F,WHITE,HISPANIC OR LATINO,ARM1,Treatment 1,ARM1,Treatment 1,KZ,2025-10-11,20
STUDY001,DM,STUDY001-SUBJ0106,SUBJ0106,2026-05-10,2026-08-30,2026-05-25,2026-08-22,2026-02-27,2026-08-30,,,27,74,YEARS,M,BLACK OR AFRICAN AMERICAN,HISPANIC OR LATINO,ARM2,Treatment 2,ARM2,Treatment 2,SL,2026-04-24,13
STUDY001,DM,STUDY001-SUBJ0107,SUBJ0107,2026-05-21,2026-09-05,2026-06-29,2026-08-29,2026-08-07,2026-09-05,,,10,43,YEARS,F,WHITE,HISPANIC OR LATINO,ARM2,Treatment 2,ARM2,Treatment 2,CU,2026-01-22,10
STUDY001,DM,STUDY001-SUBJ0108,SUBJ0108,2026-05-18,2026-08-27,2025-10-25,2026-08-19,2025-11-24,2026-08-27,,,19,25,YEARS,F,OTHER,HISPANIC OR LATINO,ARM1,Treatment 1,ARM1,Treatment 1,MM,2025-11-20,9
STUDY001,DM,STUDY001-SUBJ0109,SUBJ0109,2025-10-29,2026-08-21,2025-12-10,2026-09-11,2026-02-04,2026-08-21,,,31,52,YEARS,M,OTHER,HISPANIC OR LATINO,ARM1,Treatment 1,ARM1,Treatment 1,CI,2026-02-05,12
STUDY001,DM,STUDY001-SUBJ0110,SUBJ0110,2026-05-28,2026-08-16,2026-07-19,2026-09-03,2026-07-22,2026-08-16,,,19,41,YEARS,F,ASIAN,HISPANIC OR LATINO,ARM1,Treatment 1,ARM1,Treatment 1,MN,2026-04-29,22
STUDY001,DM,STUDY001-SUBJ0111,SUBJ0111,2026-07-31,2026-08-19,2026-01-16,2026-08-16,2026-04-30,2026-08-19,,,18,79,YEARS,F,BLACK OR AFRICAN AMERICAN,NOT HISPANIC OR LATINO,ARM3,Treatment 3,ARM3,Treatment 3,ZA,2026-08-05,8
STUDY001,DM,STUDY001-SUBJ0112,SUBJ0112,2026-04-18,2026-08-26,2025-11-10,2026-09-11,2026-08-10,2026-08-26,,,4,54,YEARS,M,BLACK OR AFRICAN AMERICAN,HISPANIC OR LATINO,ARM1,Treatment 1,ARM3,Treatment 3,ET,2026-07-27,27
STUDY001,DM,STUDY001-SUBJ0113,SUBJ0113,2025-12-05,2026-09-03,2026-05-23,2026-09-09,2026-07-15,2026-09-03,,,31,68,YEARS,M,BLACK OR AFRICAN AMERICAN,HISPANIC OR LATINO,ARM2,Treatment 2,ARM2,Treatment 2,NI,2026-07-28,18
STUDY001,DM,STUDY001-SUBJ0114,SUBJ0114,2025-09-30,2026-08-20,2025-12-10,2026-09-11,2026-08-08,2026-08-20,,,33,68,YEARS,F,AMERICAN INDIAN OR ALASKA NATIVE,HISPANIC OR LATINO,ARM2,Treatment 2,ARM2,Treatment 2,CN,2026-05-01,15
STUDY001,DM,STUDY001-SUBJ0115,SUBJ0115,2025-09-14,2026-09-05,2026-07-24,2026-08-26,2026-06-03,2026-09-05,,,44,31,YEARS,M,AMERICAN INDIAN OR ALASKA NATIVE,HISPANIC OR LATINO,ARM3,Treatment 3,ARM3,Treatment 3,NE,2025-12-17,13
STUDY001,DM,STUDY001-SUBJ0116,SUBJ0116,2026-07-10,2026-08-14,2025-10-09,2026-08-31,2025-09-18,2026-08-14,,,26,58,YEARS,M,AMERICAN INDIAN OR ALASKA NATIVE,NOT HISPANIC OR LATINO,ARM3,Treatment 3,ARM3,Treatment 3,TD,2026-04-07,27
STUDY001,DM,STUDY001-SUBJ0117,SUBJ0117,2026-06-02,2026-09-11,2026-08-08,2026-09-09,2026-03-07,2026-09-11,,,13,20,YEARS,M,WHITE,HISPANIC OR LATINO,ARM1,Treatment 1,ARM1,Treatment 1,GR,2025-10-24,3
STUDY001,DM,STUDY001-SUBJ0118,SUBJ0118,2026-01-19,2026-09-09,2026-01-11,2026-08-17,2026-07-29,2026-09-09,,,17,34,YEARS,F,BLACK OR AFRICAN AMERICAN,NOT HISPANIC OR LATINO,ARM3,Treatment 3,ARM3,Treatment 3,PS,2026-03-12,9
STUDY001,DM,STUDY001-SUBJ0119,SUBJ0119,2026-05-17,2026-09-09,2025-10-23,2026-09-01,2026-06-23,2026-09-09,,,9,42,YEARS,M,OTHER,HISPANIC OR LATINO,ARM3,Treatment 3,ARM3,Treatment 3,SV,2026-02-26,26
STUDY001,DM,STUDY001-SUBJ0120,SUBJ0120,2026-06-15,2026-09-01,2025-11-25,2026-09-04,2026-01-30,2026-09-01,,,35,44,YEARS,F,OTHER,NOT HISPANIC OR LATINO,ARM2,Treatment 2,ARM2,Treatment 2,AR,2026-05-23,17
